ts,id,Ax,Ay,Az,Gx,Gy,Gz
-0.745,IMU0,0.5843847656250001,-10.0782421875,0.852626953125,0.4901960784313726,-0.21008403361344538,-1.3305322128851542
-0.735,IMU0,0.59396484375,-10.0782421875,0.890947265625,0.4901960784313726,-0.42016806722689076,-1.3305322128851542
-0.725,IMU0,0.6418652343750001,-10.068662109375001,0.852626953125,0.4901960784313726,-0.350140056022409,-1.3305322128851542
-0.715,IMU0,0.6514453125,-10.087822265625,0.852626953125,0.42016806722689076,-0.350140056022409,-1.3305322128851542
-0.705,IMU0,0.6035449218750001,-10.106982421875001,0.910107421875,0.4901960784313726,-0.4901960784313726,-1.3305322128851542
-0.695,IMU0,0.59396484375,-10.087822265625,0.929267578125,0.4901960784313726,-0.5602240896358543,-1.3305322128851542
-0.685,IMU0,0.59396484375,-10.0782421875,0.9196875000000001,0.4901960784313726,-0.42016806722689076,-1.2605042016806722
-0.675,IMU0,0.6514453125,-10.09740234375,0.890947265625,0.42016806722689076,-0.1400560224089636,-1.2605042016806722
-0.665,IMU0,0.5460644531250001,-10.068662109375001,0.929267578125,0.42016806722689076,-0.0700280112044818,-1.2605042016806722
-0.655,IMU0,0.5460644531250001,-10.087822265625,0.9196875000000001,0.42016806722689076,0,-1.1904761904761905
-0.645,IMU0,0.51732421875,-10.106982421875001,0.852626953125,0.4901960784313726,0.21008403361344538,-1.2605042016806722
-0.635,IMU0,0.5269042968750001,-10.087822265625,0.833466796875,0.42016806722689076,0.21008403361344538,-1.2605042016806722
-0.625,IMU0,0.5652246093750001,-10.1165625,0.852626953125,0.4901960784313726,0,-1.2605042016806722
-0.615,IMU0,0.5843847656250001,-10.087822265625,0.8813671875000001,0.4901960784313726,-0.0700280112044818,-1.2605042016806722
-0.605,IMU0,0.6035449218750001,-10.087822265625,0.8813671875000001,0.4901960784313726,0,-1.2605042016806722
-0.595,IMU0,0.6035449218750001,-10.087822265625,0.8622070312500001,0.42016806722689076,-0.0700280112044818,-1.3305322128851542
-0.585,IMU0,0.55564453125,-10.126142578125,0.8238867187500001,0.42016806722689076,-0.21008403361344538,-1.3305322128851542
-0.575,IMU0,0.5652246093750001,-10.106982421875001,0.8622070312500001,0.42016806722689076,-0.42016806722689076,-1.3305322128851542
-0.565,IMU0,0.5460644531250001,-10.087822265625,0.929267578125,0.4901960784313726,-0.4901960784313726,-1.2605042016806722
-0.555,IMU0,0.5460644531250001,-10.087822265625,0.910107421875,0.4901960784313726,-0.42016806722689076,-1.3305322128851542
-0.545,IMU0,0.51732421875,-10.09740234375,0.871787109375,0.4901960784313726,-0.42016806722689076,-1.3305322128851542
-0.535,IMU0,0.48858398437500006,-10.106982421875001,0.8813671875000001,0.42016806722689076,-0.42016806722689076,-1.400560224089636
-0.525,IMU0,0.46942382812500005,-10.09740234375,0.8430468750000001,0.42016806722689076,-0.21008403361344538,-1.3305322128851542
-0.515,IMU0,0.49816406250000006,-10.0782421875,0.8430468750000001,0.42016806722689076,0.0700280112044818,-1.3305322128851542
-0.505,IMU0,0.51732421875,-10.1165625,0.871787109375,0.42016806722689076,0.0700280112044818,-1.3305322128851542
-0.495,IMU0,0.55564453125,-10.106982421875001,0.8813671875000001,0.4901960784313726,0.0700280112044818,-1.3305322128851542
-0.485,IMU0,0.5460644531250001,-10.068662109375001,0.8813671875000001,0.4901960784313726,0.1400560224089636,-1.3305322128851542
-0.475,IMU0,0.536484375,-10.1165625,0.910107421875,0.42016806722689076,0.2801120448179272,-1.3305322128851542
-0.465,IMU0,0.5460644531250001,-10.0782421875,0.852626953125,0.4901960784313726,0.2801120448179272,-1.3305322128851542
-0.455,IMU0,0.6035449218750001,-10.09740234375,0.852626953125,0.4901960784313726,0,-1.3305322128851542
-0.445,IMU0,0.6035449218750001,-10.106982421875001,0.9196875000000001,0.42016806722689076,-0.1400560224089636,-1.3305322128851542
-0.435,IMU0,0.5748046875,-10.087822265625,0.910107421875,0.42016806722689076,-0.2801120448179272,-1.3305322128851542
-0.425,IMU0,0.59396484375,-10.087822265625,0.9388476562500001,0.42016806722689076,-0.350140056022409,-1.400560224089636
-0.415,IMU0,0.5269042968750001,-10.068662109375001,0.910107421875,0.350140056022409,-0.4901960784313726,-1.3305322128851542
-0.405,IMU0,0.5077441406250001,-10.087822265625,0.890947265625,0.350140056022409,-0.4901960784313726,-1.400560224089636
-0.395,IMU0,0.536484375,-10.068662109375001,0.871787109375,0.350140056022409,-0.21008403361344538,-1.400560224089636
-0.385,IMU0,0.5652246093750001,-10.135722656250001,0.852626953125,0.350140056022409,0,-1.400560224089636
-0.375,IMU0,0.5652246093750001,-10.0782421875,0.9005273437500001,0.42016806722689076,0,-1.3305322128851542
-0.365,IMU0,0.55564453125,-10.106982421875001,0.9196875000000001,0.42016806722689076,-0.0700280112044818,-1.3305322128851542
-0.355,IMU0,0.536484375,-10.0782421875,0.8813671875000001,0.4901960784313726,0.0700280112044818,-1.3305322128851542
-0.345,IMU0,0.613125,-10.09740234375,0.871787109375,0.42016806722689076,0.350140056022409,-1.3305322128851542
-0.335,IMU0,0.6227050781250001,-10.09740234375,0.852626953125,0.350140056022409,0.2801120448179272,-1.400560224089636
-0.325,IMU0,0.6514453125,-10.068662109375001,0.9388476562500001,0.350140056022409,0.1400560224089636,-1.3305322128851542
-0.315,IMU0,0.6227050781250001,-10.0782421875,0.833466796875,0.350140056022409,0,-1.3305322128851542
-0.305,IMU0,0.6227050781250001,-10.068662109375001,0.795146484375,0.350140056022409,-0.0700280112044818,-1.3305322128851542
-0.295,IMU0,0.5269042968750001,-10.106982421875001,0.7855664062500001,0.350140056022409,-0.2801120448179272,-1.3305322128851542
-0.285,IMU0,0.536484375,-10.049501953125,0.8047265625000001,0.350140056022409,-0.350140056022409,-1.400560224089636
-0.275,IMU0,0.51732421875,-10.1165625,0.795146484375,0.350140056022409,-0.350140056022409,-1.400560224089636
-0.265,IMU0,0.59396484375,-10.068662109375001,0.9388476562500001,0.42016806722689076,-0.350140056022409,-1.400560224089636
-0.255,IMU0,0.46942382812500005,-10.09740234375,0.8047265625000001,0.350140056022409,-0.350140056022409,-1.3305322128851542
-0.245,IMU0,0.5460644531250001,-10.011181640625,0.8622070312500001,0.42016806722689076,-0.42016806722689076,-1.3305322128851542
-0.235,IMU0,0.51732421875,-10.145302734375,0.8238867187500001,0.350140056022409,-0.21008403361344538,-1.3305322128851542
-0.225,IMU0,0.6035449218750001,-10.164462890625,0.9580078125000001,0.42016806722689076,-0.21008403361344538,-1.400560224089636
-0.215,IMU0,0.5652246093750001,-10.308164062500001,0.9005273437500001,0.5602240896358543,-0.2801120448179272,-1.400560224089636
-0.205,IMU0,0.689765625,-10.049501953125,0.871787109375,0.5602240896358543,-0.350140056022409,-1.400560224089636
-0.195,IMU0,0.795146484375,-10.039921875000001,0.6418652343750001,0.350140056022409,-0.700280112044818,-1.400560224089636
-0.185,IMU0,0.37362304687500003,-9.934541015625001,0.8430468750000001,0.2801120448179272,-0.700280112044818,-1.5406162464985995
-0.175,IMU0,0.10538085937500001,-10.106982421875001,1.51365234375,0.6302521008403361,0.6302521008403361,-1.1904761904761905
-0.165,IMU0,0.9771679687500001,-9.829160156250001,0.5077441406250001,0.6302521008403361,0.5602240896358543,-1.1904761904761905
-0.155,IMU0,0.613125,-11.1512109375,0.699345703125,0.700280112044818,-0.700280112044818,-1.3305322128851542
-0.145,IMU0,0.689765625,-9.723779296875001,0.7280859375000001,0.21008403361344538,-1.400560224089636,-1.4705882352941178
-0.135,IMU0,0.775986328125,-11.294912109375002,1.159189453125,0.21008403361344538,-0.9103641456582633,-1.5406162464985995
-0.125,IMU0,0.36404296875000003,-12.463681640625001,1.120869140625,0.8403361344537815,-0.350140056022409,-1.5406162464985995
-0.115,IMU0,1.22625,-24.54416015625,1.657353515625,1.1204481792717087,1.050420168067227,-1.680672268907563
-0.105,IMU0,0.086220703125,-44.058779296875,-0.49816406250000006,0.7703081232492998,-2.801120448179272,-1.8207282913165266
-0.095,IMU0,1.906435546875,-57.106845703125,0.43110351562500004,0.5602240896358543,-2.5910364145658265,-1.680672268907563
-0.085,IMU0,1.36037109375,-59.33900390625001,0.7664062500000001,-1.1904761904761905,-0.2801120448179272,-2.170868347338936
-0.075,IMU0,1.465751953125,-64.03324218750001,0.40236328125000004,-1.1904761904761905,2.170868347338936,-2.8711484593837535
-0.065,IMU0,0.890947265625,-62.739931640625,0.44068359375000005,-1.1204481792717087,1.5406162464985995,-2.5910364145658265
-0.055,IMU0,1.51365234375,-63.0369140625,0.70892578125,-1.3305322128851542,-0.9103641456582633,-2.2408963585434174
-0.045,IMU0,1.3699511718750002,-64.74216796875001,0.9196875000000001,-0.5602240896358543,-4.831932773109244,-1.8207282913165266
-0.035,IMU0,1.619033203125,-67.826953125,0.43110351562500004,-0.0700280112044818,-6.792717086834735,-1.680672268907563
-0.025,IMU0,1.4944921875000001,-71.40990234375,0.162861328125,0.7703081232492998,-10.154061624649861,-2.100840336134454
-0.015,IMU0,1.8393750000000002,-75.01201171875,-0.076640625,0.8403361344537815,-13.58543417366947,-2.380952380952381
-0.005,IMU0,1.4561718750000001,-78.42251953125,-0.737666015625,-0.0700280112044818,-12.184873949579833,-2.450980392156863
0.005,IMU0,3.5158886718750004,-78.259658203125,0.63228515625,-1.9607843137254903,-25.07002801120448,-2.380952380952381
0.015,IMU0,4.952900390625,-78.82488281250001,4.88583984375,0.2801120448179272,-28.991596638655462,-2.450980392156863
0.025,IMU0,-0.48858398437500006,-79.160185546875,0.41194335937500004,2.801120448179272,-30.04201680672269,-2.030812324929972
0.035,IMU0,-3.9374121093750003,-78.738662109375,-2.002236328125,3.2913165266106446,-29.551820728291318,-2.801120448179272
0.045,IMU0,0.7664062500000001,-80.12777343750001,1.274150390625,3.361344537815126,-21.77871148459384,-3.2913165266106446
0.055,IMU0,-0.2682421875,-80.83669921875,-4.684658203125,2.6610644257703084,-13.725490196078432,-2.2408963585434174
0.065,IMU0,8.708291015625,-81.421083984375,6.821015625,-0.700280112044818,-1.3305322128851542,-4.061624649859944
0.075,IMU0,0.7855664062500001,-82.4269921875,6.763535156250001,-2.3109243697478994,-10.92436974789916,-4.761904761904762
0.085,IMU0,-2.481240234375,-82.59943359375,-6.418652343750001,-3.991596638655462,-28.991596638655462,-2.170868347338936
0.095,IMU0,0.871787109375,-83.0784375,-4.263134765625001,-7.843137254901961,-62.53501400560224,1.400560224089636
0.105,IMU0,7.664062500000001,-83.41374023437501,0.718505859375,-0.5602240896358543,-47.19887955182073,-0.7703081232492998
0.115,IMU0,-1.753154296875,-83.921484375,-7.482041015625001,3.781512605042017,-4.761904761904762,-5.6722689075630255
0.125,IMU0,2.9889843750000002,-84.15140625000001,-1.8872753906250002,1.6106442577030813,29.6218487394958,-6.932773109243698
0.135,IMU0,-3.5254687500000004,-85.483037109375,1.1687695312500002,7.843137254901961,29.061624649859944,-6.022408963585434
0.145,IMU0,3.35302734375,-85.8375,9.838740234375,5.8123249299719895,2.6610644257703084,-2.801120448179272
0.155,IMU0,5.5851855468750005,-86.36440429687501,4.4834765625,4.761904761904762,-38.23529411764706,0.9803921568627452
0.165,IMU0,1.8489550781250002,-86.53684570312501,0.737666015625,4.901960784313726,-71.07843137254902,1.2605042016806722
0.175,IMU0,2.002236328125,-86.977529296875,-4.205654296875,-0.42016806722689076,-55.46218487394958,3.361344537815126
0.185,IMU0,4.675078125000001,-87.9451171875,-0.6514453125,-8.61344537815126,-9.313725490196079,4.551820728291316
0.195,IMU0,5.815107421875,-87.98343750000001,5.000800781250001,-10.224089635854343,12.46498599439776,0.5602240896358543
0.205,IMU0,0.7855664062500001,-88.29,6.389912109375,-7.563025210084034,18.69747899159664,-1.1904761904761905
0.215,IMU0,2.70158203125,-88.27083984375001,3.2955468750000003,-5.2521008403361344,31.1624649859944,0.700280112044818
0.225,IMU0,7.204218750000001,-88.34748046875,1.82021484375,-2.5910364145658265,0.2801120448179272,-0.8403361344537815
0.235,IMU0,8.650810546875,-88.92228515625001,5.03912109375,-2.450980392156863,-35.0140056022409,-2.170868347338936
0.245,IMU0,9.091494140625,-88.92228515625001,-6.102509765625,4.131652661064426,-50.56022408963586,-4.271708683473389
0.255,IMU0,2.47166015625,-89.276748046875,3.650009765625,1.9607843137254903,-59.173669467787114,-2.380952380952381
0.265,IMU0,1.274150390625,-89.372548828125,1.082548828125,2.030812324929972,-78.15126050420169,-0.350140056022409
0.275,IMU0,-5.489384765625,-89.29590820312501,8.708291015625,4.271708683473389,-91.87675070028011,5.9523809523809526
0.285,IMU0,0.63228515625,-89.94735351562501,1.78189453125,1.8907563025210086,-88.51540616246498,11.484593837535014
0.295,IMU0,2.31837890625,-89.91861328125,-3.2572265625,-0.21008403361344538,-63.58543417366947,11.554621848739496
0.305,IMU0,4.0236328125,-90.64669921875,0.047900390625000004,-5.042016806722689,-10.644257703081234,5.6722689075630255
0.315,IMU0,-2.7207421875,-92.27531250000001,-1.6094531250000002,-10.224089635854343,41.31652661064426,0.6302521008403361
0.325,IMU0,0.929267578125,-92.783056640625,0.316142578125,-10.57422969187675,42.016806722689076,-1.3305322128851542
0.335,IMU0,2.8069628906250004,-93.271640625,7.817343750000001,-2.380952380952381,3.151260504201681,-3.781512605042017
0.345,IMU0,2.308798828125,-94.220068359375,4.80919921875,0.9803921568627452,-14.565826330532213,-4.69187675070028
0.355,IMU0,1.0538085937500001,-94.3062890625,-1.6860937500000002,2.5910364145658265,-40.68627450980392,-4.761904761904762
0.365,IMU0,0.9005273437500001,-94.43083007812501,2.6441015625000004,0.9103641456582633,-55.88235294117647,-4.201680672268908
0.375,IMU0,2.77822265625,-94.411669921875,-2.078876953125,-1.8907563025210086,-37.04481792717087,-3.781512605042017
0.385,IMU0,0.5843847656250001,-95.32177734375,2.634521484375,-5.322128851540617,-16.946778711484594,-3.5014005602240896
0.395,IMU0,4.397255859375,-95.58043945312501,0.9196875000000001,-4.271708683473389,14.355742296918768,-2.73109243697479
0.405,IMU0,4.1481738281250005,-95.47505859375,2.5099804687500002,-4.271708683473389,44.11764705882353,-1.1904761904761905
0.415,IMU0,5.029541015625,-95.80078125,-1.350791015625,-5.112044817927171,88.58543417366947,2.3109243697478994
0.425,IMU0,2.538720703125,-97.285693359375,-3.4871484375,-5.882352941176471,80.95238095238095,2.9411764705882355
0.435,IMU0,-0.21076171875000002,-97.879658203125,0.057480468750000006,-5.8123249299719895,71.21848739495799,4.411764705882353
0.445,IMU0,0.43110351562500004,-98.04251953125001,-3.2572265625,-2.9411764705882355,59.45378151260505,5.2521008403361344
0.455,IMU0,3.803291015625,-97.937138671875,-0.0383203125,0.6302521008403361,47.54901960784314,2.8711484593837535
0.465,IMU0,1.149609375,-98.301181640625,-1.044228515625,4.131652661064426,21.42857142857143,-2.3109243697478994
0.475,IMU0,1.676513671875,-98.87598632812501,-1.350791015625,7.002801120448179,15.966386554621849,-5.392156862745098
0.485,IMU0,3.1997460937500004,-99.096328125,2.040556640625,10.57422969187675,9.523809523809524,-9.173669467787116
0.495,IMU0,1.0154882812500001,-101.10814453125,-1.3316308593750001,12.675070028011206,10.084033613445378,-10.994397759103641
0.505,IMU0,0.39278320312500004,-103.876787109375,-2.6728417968750002,9.453781512605042,11.554621848739496,-8.893557422969188
0.515,IMU0,1.101708984375,-104.59529296875,-1.3412109375,5.6722689075630255,12.955182072829132,-5.742296918767507
0.525,IMU0,1.159189453125,-92.76389648437501,-1.9639160156250002,2.170868347338936,13.795518207282914,-3.151260504201681
0.535,IMU0,2.01181640625,-107.823779296875,-1.8393750000000002,0.1400560224089636,15.336134453781513,-3.361344537815126
0.545,IMU0,2.538720703125,-105.658681640625,2.9698242187500004,1.8207282913165266,14.775910364145659,-5.112044817927171
0.555,IMU0,2.7399023437500003,-103.49358398437501,0.63228515625,6.0924369747899165,14.075630252100842,-6.932773109243698
0.565,IMU0,1.5998730468750002,-101.366806640625,-0.47900390625000006,7.983193277310924,14.355742296918768,-7.633053221288516
0.575,IMU0,1.178349609375,-100.03517578125,-1.5328125000000001,7.212885154061625,14.705882352941178,-6.722689075630252
0.585,IMU0,1.3412109375,-99.69987304687501,-2.24173828125,4.271708683473389,14.985994397759104,-5.182072829131653
0.595,IMU0,1.427431640625,-103.67560546875,-0.8813671875000001,1.4705882352941178,15.126050420168069,-4.271708683473389
0.605,IMU0,1.8776953125000002,-103.11038085937501,-0.5748046875,-0.2801120448179272,15.896358543417367,-4.271708683473389
0.615,IMU0,1.9255957031250002,-104.23125,-0.9388476562500001,-0.9803921568627452,15.896358543417367,-5.2521008403361344
0.625,IMU0,2.3375390625000003,-103.9246875,0.9675878906250001,0.42016806722689076,15.476190476190476,-6.722689075630252
0.635,IMU0,1.37953125,-103.98216796875,-0.6610253906250001,1.8907563025210086,15.266106442577032,-7.142857142857143
0.645,IMU0,0.45984375000000005,-104.79647460937501,-0.43110351562500004,3.151260504201681,15.616246498599441,-6.23249299719888
0.655,IMU0,1.274150390625,-104.59529296875,-0.756826171875,0.1400560224089636,16.176470588235293,-5.9523809523809526
0.665,IMU0,2.385439453125,-104.470751953125,-1.6477734375000002,-2.2408963585434174,16.176470588235293,-7.002801120448179
0.675,IMU0,1.36037109375,-104.51865234375,0.18202148437500001,-3.081232492997199,15.336134453781513,-7.142857142857143
0.685,IMU0,1.542392578125,-104.5378125,0.37362304687500003,-2.3109243697478994,14.635854341736696,-6.652661064425771
0.695,IMU0,1.66693359375,-103.63728515625,-0.833466796875,-1.4705882352941178,14.005602240896359,-6.162464985994398
0.705,IMU0,1.676513671875,-104.413271484375,-0.46942382812500005,-1.400560224089636,13.23529411764706,-5.9523809523809526
0.715,IMU0,1.791474609375,-104.049228515625,-1.0346484375,-1.7507002801120448,12.88515406162465,-6.022408963585434
0.725,IMU0,2.002236328125,-104.19292968750001,-0.8238867187500001,-3.2212885154061626,12.394957983193278,-6.582633053221289
0.735,IMU0,1.62861328125,-104.767734375,-0.39278320312500004,-4.411764705882353,11.554621848739496,-6.932773109243698
0.745,IMU0,1.74357421875,-104.528232421875,-0.45026367187500005,-4.761904761904762,10.994397759103641,-6.442577030812325
0.755,IMU0,1.4944921875000001,-104.30789062500001,-0.55564453125,-4.831932773109244,10.014005602240896,-6.162464985994398
0.765,IMU0,2.0309765625000002,-103.25408203125001,0.51732421875,-4.481792717086835,9.173669467787116,-6.372549019607844
0.775,IMU0,1.39869140625,-104.92101562500001,-1.7723144531250001,-4.831932773109244,7.843137254901961,-6.652661064425771
0.785,IMU0,2.12677734375,-104.59529296875,0.09580078125000001,-5.2521008403361344,7.142857142857143,-6.722689075630252
0.795,IMU0,1.159189453125,-104.643193359375,-0.9963281250000001,-5.46218487394958,6.162464985994398,-6.722689075630252
0.805,IMU0,1.6860937500000002,-104.61445312500001,0.143701171875,-6.23249299719888,5.46218487394958,-6.512605042016807
0.815,IMU0,2.059716796875,-104.815634765625,-1.22625,-6.792717086834735,4.341736694677872,-7.212885154061625
0.825,IMU0,1.66693359375,-104.96891601562501,-0.01916015625,-7.563025210084034,2.9411764705882355,-7.983193277310924
0.835,IMU0,1.6860937500000002,-104.86353515625001,-0.316142578125,-7.002801120448179,1.400560224089636,-7.983193277310924
0.845,IMU0,1.1112890625,-105.08387695312501,-0.41194335937500004,-7.212885154061625,-0.0700280112044818,-7.352941176470589
0.855,IMU0,1.6477734375000002,-105.01681640625,-0.258662109375,-7.42296918767507,-1.5406162464985995,-6.862745098039216
0.865,IMU0,1.580712890625,-105.21799804687501,-0.948427734375,-8.333333333333334,-2.9411764705882355,-7.072829131652662
0.875,IMU0,2.05013671875,-105.43833984375,-0.20118164062500002,-9.313725490196079,-4.271708683473389,-7.42296918767507
0.885,IMU0,1.3316308593750001,-105.371279296875,-0.49816406250000006,-9.803921568627452,-6.372549019607844,-8.333333333333334
0.895,IMU0,1.829794921875,-105.34253906250001,0.22034179687500002,-9.523809523809524,-8.053221288515406,-8.543417366946779
0.905,IMU0,1.0921289062500001,-105.40959960937501,-0.143701171875,-9.243697478991598,-10.154061624649861,-8.19327731092437
0.915,IMU0,1.39869140625,-105.4191796875,-0.63228515625,-10.57422969187675,-11.69467787114846,-7.703081232492997
0.925,IMU0,1.5232324218750002,-104.700673828125,-0.48858398437500006,-9.803921568627452,-13.865546218487395,-7.352941176470589
0.935,IMU0,1.5615527343750002,-105.55330078125,0.40236328125000004,-11.624649859943979,-15.616246498599441,-7.282913165266106
0.945,IMU0,1.580712890625,-105.58204101562501,-0.316142578125,-9.38375350140056,-18.137254901960784,-7.212885154061625
0.955,IMU0,0.37362304687500003,-107.37351562500001,0.162861328125,-12.324929971988796,-19.747899159663866,-7.142857142857143
0.965,IMU0,2.6536816406250003,-107.73755859375001,0.13412109375,-9.103641456582633,-21.84873949579832,-7.212885154061625
0.975,IMU0,1.0538085937500001,-107.35435546875,0.057480468750000006,-10.644257703081234,-24.019607843137255,-7.42296918767507
0.985,IMU0,1.8010546875000002,-106.34844726562501,-0.15328125,-10.364145658263306,-28.571428571428573,-7.42296918767507
0.995,IMU0,1.1112890625,-107.4118359375,-0.45026367187500005,-11.764705882352942,-31.302521008403364,-6.442577030812325
1.005,IMU0,1.6094531250000002,-107.25855468750001,0.44068359375000005,-8.893557422969188,-34.45378151260504,-5.9523809523809526
1.015,IMU0,1.4082714843750002,-107.19149414062501,0.009580078125,-11.554621848739496,-36.27450980392157,-5.882352941176471
1.025,IMU0,1.37953125,-106.62626953125,-0.162861328125,-7.773109243697479,-39.14565826330532,-5.46218487394958
1.035,IMU0,1.140029296875,-106.5687890625,0.48858398437500006,-10.854341736694678,-41.45658263305322,-5.392156862745098
1.045,IMU0,1.676513671875,-106.252646484375,0.45026367187500005,-9.313725490196079,-43.8375350140056,-5.322128851540617
1.055,IMU0,1.2166699218750001,-106.59752929687501,0.01916015625,-9.453781512605042,-45.44817927170869,-5.392156862745098
1.065,IMU0,1.791474609375,-106.28138671875001,0.680185546875,-11.414565826330533,-46.77871148459384,-5.6722689075630255
1.075,IMU0,1.5232324218750002,-107.35435546875,-0.19160156250000002,-9.593837535014005,-49.57983193277311,-5.9523809523809526
1.085,IMU0,1.149609375,-107.77587890625,1.2166699218750001,-12.46498599439776,-51.610644257703086,-5.8123249299719895
1.095,IMU0,0.63228515625,-107.402255859375,1.542392578125,-8.403361344537815,-53.8515406162465,-4.971988795518207
1.105,IMU0,1.9639160156250002,-107.71839843750001,-0.44068359375000005,-10.92436974789916,-55.392156862745104,-5.112044817927171
1.115,IMU0,1.7339941406250001,-107.651337890625,0.09580078125000001,-11.134453781512606,-57.913165266106446,-5.602240896358544
1.125,IMU0,1.5615527343750002,-109.33743164062501,0.9005273437500001,-11.834733893557424,-59.943977591036415,-6.302521008403362
1.135,IMU0,0.49816406250000006,-111.61749023437501,-0.11496093750000001,-11.624649859943979,-61.76470588235294,-6.23249299719888
1.145,IMU0,2.4237597656250003,-109.7876953125,0.8430468750000001,-11.974789915966387,-63.79551820728292,-6.302521008403362
1.155,IMU0,1.025068359375,-108.31236328125,1.55197265625,-10.784313725490197,-66.66666666666667,-6.022408963585434
1.165,IMU0,1.2645703125,-107.517216796875,0.910107421875,-9.943977591036415,-69.32773109243698,-5.5322128851540615
1.175,IMU0,1.868115234375,-107.3351953125,0.5652246093750001,-9.873949579831933,-71.77871148459384,-5.322128851540617
1.185,IMU0,1.4082714843750002,-106.90409179687501,1.063388671875,-10.224089635854343,-73.8795518207283,-5.6722689075630255
1.195,IMU0,1.2454101562500002,-107.48847656250001,-0.23950195312500003,-12.184873949579833,-76.61064425770309,-5.9523809523809526
1.205,IMU0,1.389111328125,-107.16275390625,1.5998730468750002,-10.364145658263306,-78.99159663865547,-5.5322128851540615
1.215,IMU0,1.504072265625,-106.90409179687501,0.5460644531250001,-13.23529411764706,-80.95238095238095,-5.392156862745098
1.225,IMU0,1.714833984375,-107.36393554687501,2.35669921875,-8.61344537815126,-84.03361344537815,-5.2521008403361344
1.235,IMU0,1.427431640625,-107.747138671875,0.795146484375,-10.854341736694678,-86.48459383753502,-5.602240896358544
1.245,IMU0,1.657353515625,-107.56511718750001,0.7664062500000001,-8.823529411764707,-88.51540616246498,-5.5322128851540615
1.255,IMU0,1.504072265625,-108.87758789062501,2.0309765625000002,-9.663865546218489,-91.03641456582633,-5.5322128851540615
1.265,IMU0,1.4944921875000001,-108.28362304687501,0.11496093750000001,-9.873949579831933,-93.41736694677871,-4.761904761904762
1.275,IMU0,1.178349609375,-108.599765625,0.814306640625,-10.57422969187675,-95.72829131652661,-4.69187675070028
1.285,IMU0,2.308798828125,-109.82601562500001,1.7627343750000002,-10.714285714285715,-97.6890756302521,-4.831932773109244
1.295,IMU0,1.8010546875000002,-110.37208007812501,2.2704785156250002,-8.473389355742297,-99.78991596638656,-5.112044817927171
1.305,IMU0,1.274150390625,-109.19373046875,1.829794921875,-7.42296918767507,-102.45098039215686,-5.2521008403361344
1.315,IMU0,1.55197265625,-108.590185546875,1.1304492187500002,-6.442577030812325,-106.02240896358543,-4.551820728291316
1.325,IMU0,0.910107421875,-113.55266601562501,2.4908203125000004,-7.212885154061625,-107.91316526610645,-4.341736694677872
1.335,IMU0,2.404599609375,-111.39714843750001,-0.6035449218750001,-6.932773109243698,-108.82352941176471,-4.411764705882353
1.345,IMU0,2.54830078125,-110.87982421875,3.58294921875,-8.893557422969188,-110.4341736694678,-6.022408963585434
1.355,IMU0,2.222578125,-110.51578125,1.3412109375,-7.913165266106443,-112.95518207282913,-7.002801120448179
1.365,IMU0,0.833466796875,-110.13257812500001,3.266806640625,-3.5014005602240896,-115.61624649859945,-6.23249299719888
1.375,IMU0,1.7244140625000002,-109.5577734375,0.775986328125,-5.9523809523809526,-116.59663865546219,-4.131652661064426
1.385,IMU0,1.3220507812500002,-109.011708984375,2.787802734375,-2.73109243697479,-119.46778711484595,-3.011204481792717
1.395,IMU0,2.05013671875,-108.590185546875,1.37953125,-4.621848739495799,-120.30812324929973,-3.5014005602240896
1.405,IMU0,2.596201171875,-110.07509765625001,1.8106347656250001,-3.8515406162464987,-121.77871148459384,-4.341736694677872
1.415,IMU0,2.212998046875,-111.19596679687501,2.864443359375,-4.271708683473389,-122.82913165266108,-5.5322128851540615
1.425,IMU0,1.7339941406250001,-109.912236328125,2.2513183593750004,-2.73109243697479,-125.35014005602241,-5.742296918767507
1.435,IMU0,1.312470703125,-109.53861328125001,2.01181640625,-3.991596638655462,-126.89075630252101,-4.621848739495799
1.445,IMU0,1.51365234375,-109.05002929687501,2.0213964843750003,-2.801120448179272,-129.2717086834734,-3.5714285714285716
1.455,IMU0,2.040556640625,-108.86800781250001,2.3471191406250003,-2.2408963585434174,-130.60224089635855,-3.431372549019608
1.465,IMU0,2.787802734375,-108.96380859375,2.12677734375,-2.8711484593837535,-131.30252100840337,-4.551820728291316
1.475,IMU0,2.4141796875000003,-108.724306640625,1.3699511718750002,-4.621848739495799,-133.0532212885154,-5.602240896358544
1.485,IMU0,1.8010546875000002,-109.509873046875,3.1997460937500004,-0.350140056022409,-135.64425770308125,-5.5322128851540615
1.495,IMU0,2.1938378906250002,-108.81052734375001,1.542392578125,-2.801120448179272,-136.2044817927171,-4.69187675070028
1.505,IMU0,2.002236328125,-108.02496093750001,3.16142578125,1.3305322128851542,-138.79551820728292,-3.991596638655462
1.515,IMU0,2.9506640625,-109.35659179687501,1.302890625,0.700280112044818,-140.47619047619048,-4.201680672268908
1.525,IMU0,2.040556640625,-109.65357421875001,2.5004003906250003,0.5602240896358543,-142.296918767507,-4.831932773109244
1.535,IMU0,2.24173828125,-110.89898437500001,2.85486328125,-0.42016806722689076,-143.9075630252101,-4.551820728291316
1.545,IMU0,3.2763867187500004,-110.38166015625,1.044228515625,-2.380952380952381,-145.16806722689077,-4.69187675070028
1.555,IMU0,1.85853515625,-112.920380859375,1.829794921875,-3.5014005602240896,-148.0392156862745,-5.742296918767507
1.565,IMU0,3.496728515625,-109.76853515625001,3.343447265625,-3.431372549019608,-148.73949579831933,-6.302521008403362
1.575,IMU0,2.845283203125,-111.885732421875,0.795146484375,-0.9803921568627452,-151.68067226890756,-7.142857142857143
1.585,IMU0,2.078876953125,-108.705146484375,4.6942382812500005,0.8403361344537815,-154.55182072829132,-7.142857142857143
1.595,IMU0,2.921923828125,-108.23572265625,1.120869140625,-0.1400560224089636,-156.79271708683473,-6.792717086834735
1.605,IMU0,2.5099804687500002,-107.632177734375,3.23806640625,0.5602240896358543,-158.61344537815125,-6.792717086834735
1.615,IMU0,2.8165429687500003,-106.578369140625,0.699345703125,-0.9803921568627452,-160.43417366946778,-7.282913165266106
1.625,IMU0,3.1039453125,-106.30054687500001,2.4237597656250003,-1.4705882352941178,-162.46498599439778,-8.333333333333334
1.635,IMU0,1.70525390625,-107.593857421875,1.78189453125,-1.400560224089636,-164.7058823529412,-9.103641456582633
1.645,IMU0,2.040556640625,-106.62626953125,1.9543359375000002,-0.7703081232492998,-170.65826330532212,-11.204481792717088
1.655,IMU0,2.62494140625,-105.52456054687501,2.9698242187500004,-0.0700280112044818,-173.59943977591038,-10.994397759103641
1.665,IMU0,2.385439453125,-105.1126171875,0.37362304687500003,-0.5602240896358543,-175.63025210084035,-10.714285714285715
1.675,IMU0,2.6728417968750002,-104.28873046875,2.787802734375,-1.8207282913165266,-177.10084033613447,-10.854341736694678
1.685,IMU0,3.3338671875,-103.436103515625,2.01181640625,-2.8711484593837535,-180.3221288515406,-11.834733893557424
1.695,IMU0,2.70158203125,-103.49358398437501,3.08478515625,-3.361344537815126,-183.54341736694678,-13.025210084033613
1.705,IMU0,2.375859375,-103.340302734375,2.31837890625,-0.9103641456582633,-185.64425770308125,-13.095238095238097
1.715,IMU0,2.60578125,-102.98583984375,2.05013671875,0.8403361344537815,-187.39495798319328,-13.095238095238097
1.725,IMU0,1.9734960937500001,-103.98216796875,2.078876953125,1.050420168067227,-190.12605042016807,-12.815126050420169
1.735,IMU0,3.2859667968750004,-102.65053710937501,0.929267578125,0.42016806722689076,-192.36694677871148,-12.745098039215687
1.745,IMU0,2.9794042968750003,-102.382294921875,2.12677734375,-2.030812324929972,-194.04761904761907,-14.005602240896359
1.755,IMU0,3.1039453125,-102.018251953125,2.4333398437500002,-4.201680672268908,-196.56862745098042,-15.19607843137255
1.765,IMU0,2.0309765625000002,-101.56798828125001,2.20341796875,-2.9411764705882355,-199.08963585434174,-14.915966386554622
1.775,IMU0,1.944755859375,-100.84948242187501,2.8165429687500003,-1.6106442577030813,-202.52100840336135,-14.005602240896359
1.785,IMU0,3.0656250000000003,-100.00643554687501,2.596201171875,-2.5910364145658265,-205.11204481792717,-13.865546218487395
1.795,IMU0,2.682421875,-99.0196875,2.308798828125,-1.8907563025210086,-208.26330532212887,-14.915966386554622
1.805,IMU0,2.77822265625,-99.125068359375,2.212998046875,-1.2605042016806722,-211.1344537815126,-16.03641456582633
1.815,IMU0,1.8776953125000002,-99.05800781250001,1.82021484375,-3.5714285714285716,-213.16526610644257,-16.106442577030812
1.825,IMU0,2.8069628906250004,-99.16338867187501,3.075205078125,-5.46218487394958,-216.10644257703083,-15.756302521008404
1.835,IMU0,0.7664062500000001,-102.612216796875,2.4525,-4.131652661064426,-218.9075630252101,-15.476190476190476
1.845,IMU0,3.73623046875,-98.76102539062501,3.5158886718750004,-0.7703081232492998,-221.1484593837535,-15.19607843137255
1.855,IMU0,1.5328125000000001,-97.72637695312501,1.983076171875,-0.700280112044818,-224.6498599439776,-15.686274509803923
1.865,IMU0,3.3626074218750004,-97.42939453125001,0.354462890625,-0.9803921568627452,-226.1904761904762,-16.176470588235293
1.875,IMU0,1.5615527343750002,-95.34093750000001,4.473896484375,-1.3305322128851542,-229.2016806722689,-16.946778711484594
1.885,IMU0,1.9160156250000002,-93.18541992187501,1.3699511718750002,-1.3305322128851542,-231.65266106442579,-16.946778711484594
1.895,IMU0,1.7339941406250001,-92.09329101562501,3.879931640625,-3.011204481792717,-233.54341736694678,-16.176470588235293
1.905,IMU0,1.944755859375,-93.09919921875,2.519560546875,-2.2408963585434174,-237.11484593837537,-16.03641456582633
1.915,IMU0,1.82021484375,-92.208251953125,2.20341796875,-3.431372549019608,-239.49579831932775,-15.826330532212886
1.925,IMU0,1.6956738281250001,-91.1640234375,2.5866210937500003,-0.4901960784313726,-241.66666666666669,-15.616246498599441
1.935,IMU0,1.89685546875,-90.78082031250001,2.7590625,-1.8907563025210086,-244.2577030812325,-15.826330532212886
1.945,IMU0,1.2166699218750001,-90.48383789062501,2.35669921875,-0.6302521008403361,-247.82913165266106,-15.126050420168069
1.955,IMU0,1.044228515625,-89.71743164062501,3.7074902343750002,-1.4705882352941178,-250.98039215686276,-14.075630252100842
1.965,IMU0,1.74357421875,-88.23251953125,2.70158203125,2.100840336134454,-253.85154061624652,-13.725490196078432
1.975,IMU0,1.7723144531250001,-87.04458984375,1.983076171875,-1.050420168067227,-260.92436974789916,-13.58543417366947
1.985,IMU0,0.37362304687500003,-88.5582421875,2.375859375,-0.350140056022409,-265.1260504201681,-13.025210084033613
1.995,IMU0,1.8776953125000002,-87.600234375,2.9794042968750003,0.350140056022409,-268.4873949579832,-12.114845938375352
2.005,IMU0,1.235830078125,-85.9524609375,2.232158203125,1.2605042016806722,-270.4481792717087,-12.605042016806724
2.015,IMU0,1.5711328125000001,-86.04826171875001,3.496728515625,-0.0700280112044818,-272.8291316526611,-12.815126050420169
2.025,IMU0,1.4944921875000001,-85.62673828125,2.9123437500000002,3.431372549019608,-275.7703081232493,-12.88515406162465
2.035,IMU0,0.59396484375,-85.76085937500001,2.20341796875,3.991596638655462,-279.4117647058824,-12.114845938375352
2.045,IMU0,0.7855664062500001,-84.9561328125,2.6441015625000004,3.2913165266106446,-282.49299719887955,-10.784313725490197
2.055,IMU0,1.3220507812500002,-84.4196484375,2.442919921875,2.801120448179272,-284.3137254901961,-10.294117647058824
2.065,IMU0,1.829794921875,-83.85442382812501,3.4105078125,2.100840336134454,-286.6946778711485,-10.784313725490197
2.075,IMU0,1.4082714843750002,-83.816103515625,2.9506640625,3.5014005602240896,-288.515406162465,-11.484593837535014
2.085,IMU0,1.2933105468750001,-82.90599609375,2.375859375,4.69187675070028,-291.31652661064425,-11.484593837535014
2.095,IMU0,1.59029296875,-81.612685546875,3.42966796875,7.913165266106443,-293.4873949579832,-10.92436974789916
2.105,IMU0,1.791474609375,-85.32975585937501,1.944755859375,6.512605042016807,-295.86834733893556,-10.294117647058824
2.115,IMU0,1.753154296875,-87.52359375,2.7973828125,7.282913165266106,-298.66946778711485,-10.434173669467787
2.125,IMU0,2.3375390625000003,-86.39314453125,3.88951171875,6.582633053221289,-300.28011204481794,-10.994397759103641
2.135,IMU0,1.4561718750000001,-83.461640625,2.28005859375,7.913165266106443,-302.52100840336135,-11.134453781512606
2.145,IMU0,1.78189453125,-81.90966796875,2.998564453125,8.123249299719888,-303.2212885154062,-10.784313725490197
2.155,IMU0,1.619033203125,-82.04378906250001,1.2549902343750001,8.61344537815126,-305.25210084033614,-10.854341736694678
2.165,IMU0,1.753154296875,-81.315703125,2.481240234375,8.19327731092437,-305.7422969187675,-10.994397759103641
2.175,IMU0,1.8106347656250001,-80.213994140625,3.822451171875,7.142857142857143,-307.07282913165267,-11.344537815126051
2.185,IMU0,1.9543359375000002,-79.323046875,1.8393750000000002,10.014005602240896,-307.00280112044817,-11.834733893557424
2.195,IMU0,1.676513671875,-80.060712890625,3.6787500000000004,9.033613445378151,-308.33333333333337,-12.53501400560224
2.205,IMU0,2.08845703125,-81.83302734375,0.7855664062500001,7.142857142857143,-310.0840336134454,-13.515406162464986
2.215,IMU0,0.32572265625,-80.02239257812501,2.711162109375,5.742296918767507,-311.48459383753504,-12.815126050420169
2.225,IMU0,0.8622070312500001,-78.9781640625,0.871787109375,5.042016806722689,-312.11484593837537,-11.064425770308123
2.235,IMU0,1.5328125000000001,-77.723173828125,3.73623046875,5.6722689075630255,-313.9355742296919,-10.294117647058824
2.245,IMU0,1.8106347656250001,-77.282490234375,1.7723144531250001,9.453781512605042,-315.6862745098039,-11.204481792717088
2.255,IMU0,2.1459375,-78.98774414062501,2.7973828125,9.523809523809524,-316.1064425770308,-12.254901960784315
2.265,IMU0,0.833466796875,-78.556640625,1.4849121093750002,7.703081232492997,-317.3669467787115,-13.095238095238097
2.275,IMU0,0.8813671875000001,-77.14836914062501,0.756826171875,5.882352941176471,-317.57703081232495,-12.114845938375352
2.285,IMU0,0.9580078125000001,-75.93169921875001,1.7627343750000002,4.831932773109244,-319.25770308123253,-10.224089635854343
2.295,IMU0,2.1076171875000003,-75.184453125,2.117197265625,5.182072829131653,-322.7591036414566,-9.38375350140056
2.305,IMU0,1.74357421875,-74.91621093750001,2.7973828125,7.492997198879552,-326.1904761904762,-10.994397759103641
2.315,IMU0,1.2454101562500002,-74.408466796875,0.9771679687500001,10.294117647058824,-327.59103641456585,-11.624649859943979
2.325,IMU0,0.45984375000000005,-76.3723828125,2.1746777343750003,11.204481792717088,-327.66106442577035,-10.784313725490197
2.335,IMU0,1.6094531250000002,-79.17934570312501,1.51365234375,8.96358543417367,-327.7310924369748,-9.593837535014005
2.345,IMU0,0.9580078125000001,-78.470419921875,1.2837304687500002,8.403361344537815,-329.4117647058824,-9.313725490196079
2.355,IMU0,1.8872753906250002,-78.00099609375,1.4465917968750002,4.831932773109244,-328.2913165266107,-9.453781512605042
2.365,IMU0,0.55564453125,-81.2390625,1.7339941406250001,3.5714285714285716,-331.02240896358546,-9.73389355742297
2.375,IMU0,1.178349609375,-80.750478515625,1.1304492187500002,4.411764705882353,-330.5322128851541,-9.453781512605042
2.385,IMU0,1.5711328125000001,-79.141025390625,2.692001953125,5.042016806722689,-332.4229691876751,-9.663865546218489
2.395,IMU0,0.871787109375,-76.46818359375,1.197509765625,7.072829131652662,-332.56302521008405,-9.173669467787116
2.405,IMU0,1.235830078125,-75.22277343750001,1.9255957031250002,3.991596638655462,-332.3529411764706,-8.123249299719888
2.415,IMU0,1.149609375,-74.61922851562501,1.9639160156250002,3.2212885154061626,-334.5238095238095,-7.492997198879552
2.425,IMU0,0.9867480468750001,-74.236025390625,1.07296875,4.341736694677872,-335.36414565826334,-7.142857142857143
2.435,IMU0,1.9255957031250002,-73.21095703125,1.944755859375,2.5210084033613445,-335.1540616246499,-6.722689075630252
2.445,IMU0,1.4465917968750002,-72.549931640625,1.5711328125000001,6.302521008403362,-335.92436974789916,-7.072829131652662
2.455,IMU0,2.0980371093750003,-72.02302734375,2.8069628906250004,2.2408963585434174,-336.1344537815126,-7.142857142857143
2.465,IMU0,2.05013671875,-77.225009765625,2.12677734375,3.081232492997199,-337.6750700280112,-7.492997198879552
2.475,IMU0,0.833466796875,-76.39154296875,1.1687695312500002,5.2521008403361344,-338.2352941176471,-6.932773109243698
2.485,IMU0,2.117197265625,-74.55216796875,2.9794042968750003,5.182072829131653,-337.04481792717087,-5.742296918767507
2.495,IMU0,1.7244140625000002,-74.78208984375,1.465751953125,5.5322128851540615,-336.624649859944,-5.46218487394958
2.505,IMU0,2.366279296875,-74.44678710937501,2.768642578125,7.142857142857143,-339.4957983193277,-6.23249299719888
2.515,IMU0,2.1746777343750003,-72.88523437500001,0.7664062500000001,3.081232492997199,-339.4957983193277,-6.722689075630252
2.525,IMU0,1.5615527343750002,-72.10924804687501,3.31470703125,2.450980392156863,-338.375350140056,-7.072829131652662
2.535,IMU0,1.9543359375000002,-72.549931640625,2.078876953125,1.680672268907563,-338.65546218487395,-6.862745098039216
2.545,IMU0,2.60578125,-75.15571289062501,2.442919921875,3.5014005602240896,-339.14565826330534,-7.072829131652662
2.555,IMU0,1.78189453125,-75.174873046875,2.078876953125,6.792717086834735,-340.96638655462186,-8.053221288515406
2.565,IMU0,1.7244140625000002,-73.82408203125,2.7303222656250004,3.5014005602240896,-339.9859943977591,-7.773109243697479
2.575,IMU0,1.39869140625,-74.67670898437501,2.12677734375,3.781512605042017,-340.96638655462186,-7.212885154061625
2.585,IMU0,2.941083984375,-73.67080078125001,1.8776953125000002,4.901960784313726,-341.6666666666667,-7.282913165266106
2.595,IMU0,2.1076171875000003,-72.19546875,1.22625,5.602240896358544,-341.31652661064425,-8.543417366946779
2.605,IMU0,2.5004003906250003,-71.45780273437501,2.462080078125,6.722689075630252,-340.19607843137254,-9.663865546218489
2.615,IMU0,2.9506640625,-75.47185546875001,2.7207421875,1.1904761904761905,-339.2857142857143,-9.873949579831933
2.625,IMU0,0.13412109375,-75.28983398437501,0.48858398437500006,0.8403361344537815,-339.2857142857143,-9.173669467787116
2.635,IMU0,1.8010546875000002,-70.480634765625,2.155517578125,3.431372549019608,-338.4453781512605,-6.792717086834735
2.645,IMU0,2.768642578125,-68.986142578125,2.0213964843750003,3.9215686274509807,-338.79551820728295,-7.633053221288516
2.655,IMU0,2.47166015625,-68.26763671875,2.9794042968750003,3.8515406162464987,-339.9859943977591,-8.893557422969188
2.665,IMU0,1.9160156250000002,-67.73115234375001,1.1112890625,2.8711484593837535,-339.6358543417367,-9.803921568627452
2.675,IMU0,2.040556640625,-68.7083203125,2.117197265625,1.1204481792717087,-339.3557422969188,-10.224089635854343
2.685,IMU0,1.22625,-67.85569335937501,2.7303222656250004,-0.2801120448179272,-342.8571428571429,-10.224089635854343
2.695,IMU0,2.39501953125,-66.265400390625,2.0309765625000002,2.100840336134454,-341.5966386554622,-10.224089635854343
2.705,IMU0,1.89685546875,-65.681015625,2.2513183593750004,-3.5714285714285716,-343.06722689075633,-10.014005602240896
2.715,IMU0,2.212998046875,-65.66185546875,2.519560546875,1.3305322128851542,-344.81792717086836,-9.873949579831933
2.725,IMU0,2.1746777343750003,-64.81880859375,2.481240234375,1.7507002801120448,-344.3977591036415,-10.294117647058824
2.735,IMU0,1.389111328125,-65.019990234375,2.2513183593750004,-2.030812324929972,-344.5378151260504,-9.663865546218489
2.745,IMU0,2.634521484375,-64.32064453125001,2.9123437500000002,2.2408963585434174,-346.7086834733894,-9.523809523809524
2.755,IMU0,1.8393750000000002,-64.12904296875,2.35669921875,2.450980392156863,-347.7591036414566,-9.453781512605042
2.765,IMU0,1.8776953125000002,-63.860800781250006,2.692001953125,0.9803921568627452,-349.7198879551821,-9.523809523809524
2.775,IMU0,1.829794921875,-64.44518554687501,2.8069628906250004,-2.3109243697478994,-348.4593837535014,-9.033613445378151
2.785,IMU0,2.596201171875,-63.774580078125005,3.1039453125,1.9607843137254903,-349.4397759103642,-9.033613445378151
2.795,IMU0,2.28005859375,-63.01775390625001,3.1039453125,3.2913165266106446,-349.5798319327731,-9.173669467787116
2.805,IMU0,1.9255957031250002,-63.966181640625,2.1938378906250002,2.6610644257703084,-353.921568627451,-8.61344537815126
2.815,IMU0,2.212998046875,-63.544658203125,2.6632617187500003,4.341736694677872,-353.64145658263305,-7.913165266106443
2.825,IMU0,2.7590625,-63.24767578125,1.4561718750000001,4.271708683473389,-352.66106442577035,-8.543417366946779
2.835,IMU0,2.7399023437500003,-64.349384765625,3.23806640625,4.69187675070028,-353.8515406162465,-9.873949579831933
2.845,IMU0,2.4333398437500002,-66.495322265625,0.8430468750000001,1.8207282913165266,-354.13165266106444,-10.364145658263306
2.855,IMU0,1.983076171875,-64.406865234375,3.956572265625,2.380952380952381,-355.0420168067227,-10.014005602240896
2.865,IMU0,3.0656250000000003,-64.38770507812501,2.60578125,1.6106442577030813,-355.25210084033614,-10.434173669467787
2.875,IMU0,1.8010546875000002,-64.100302734375,2.5004003906250003,0.2801120448179272,-355.1120448179272,-10.224089635854343
2.885,IMU0,3.2093261718750004,-67.4820703125,1.714833984375,1.8207282913165266,-354.83193277310926,-10.714285714285715
2.895,IMU0,2.136357421875,-67.357529296875,1.4465917968750002,1.400560224089636,-355.25210084033614,-11.554621848739496
2.905,IMU0,1.9255957031250002,-66.60070312500001,2.4141796875000003,-2.5910364145658265,-354.76190476190476,-11.764705882352942
2.915,IMU0,2.634521484375,-64.99125000000001,1.62861328125,-3.5714285714285716,-356.6526610644258,-11.344537815126051
2.925,IMU0,1.983076171875,-64.483505859375,3.3051269531250003,-1.5406162464985995,-356.44257703081234,-11.134453781512606
2.935,IMU0,2.385439453125,-62.768671875,3.343447265625,0.5602240896358543,-356.44257703081234,-10.784313725490197
2.945,IMU0,2.5099804687500002,-64.6463671875,1.676513671875,2.030812324929972,-357.14285714285717,-11.904761904761905
2.955,IMU0,2.1746777343750003,-65.35529296875,3.3626074218750004,0.21008403361344538,-356.7226890756303,-11.834733893557424
2.965,IMU0,2.615361328125,-62.184287109375006,2.54830078125,-2.030812324929972,-360.99439775910366,-9.873949579831933
2.975,IMU0,2.212998046875,-67.415009765625,1.4178515625,-1.4705882352941178,-360.5742296918768,-9.943977591036415
2.985,IMU0,2.8261230468750003,-67.664091796875,1.389111328125,-5.9523809523809526,-361.2745098039216,-11.27450980392157
2.995,IMU0,2.155517578125,-65.441513671875,4.243974609375,-2.801120448179272,-362.67507002801125,-12.46498599439776
3.005,IMU0,2.3279589843750004,-63.927861328125005,2.0213964843750003,-0.350140056022409,-361.9047619047619,-12.254901960784315
3.015,IMU0,0.67060546875,-62.28966796875,3.6116894531250003,-2.801120448179272,-361.9747899159664,-10.854341736694678
3.025,IMU0,1.906435546875,-62.126806640625006,1.85853515625,0.6302521008403361,-364.77591036414566,-10.504201680672269
3.035,IMU0,1.389111328125,-60.83349609375001,2.5004003906250003,-1.7507002801120448,-362.60504201680675,-10.294117647058824
3.045,IMU0,2.232158203125,-60.095830078125005,1.714833984375,-5.182072829131653,-364.2857142857143,-10.014005602240896
3.055,IMU0,2.8165429687500003,-65.4894140625,3.6404296875,-3.9215686274509807,-366.31652661064425,-10.364145658263306
3.065,IMU0,1.3699511718750002,-66.399521484375,3.3051269531250003,-5.2521008403361344,-369.6778711484594,-10.784313725490197
3.075,IMU0,1.2933105468750001,-63.46801757812501,4.263134765625001,-2.450980392156863,-369.18767507002804,-9.243697478991598
3.085,IMU0,1.2070898437500002,-61.398720703125,3.247646484375,-2.5210084033613445,-371.00840336134456,-6.23249299719888
3.095,IMU0,2.040556640625,-59.712626953125,3.1231054687500004,0,-375,-4.971988795518207
3.105,IMU0,3.1231054687500004,-58.716298828125005,3.343447265625,-0.0700280112044818,-374.6498599439776,-6.162464985994398
3.115,IMU0,2.20341796875,-57.53794921875,4.416416015625,1.3305322128851542,-377.03081232492997,-7.492997198879552
3.125,IMU0,3.3913476562500002,-57.317607421875,3.324287109375,-0.7703081232492998,-376.8207282913165,-8.61344537815126
3.135,IMU0,1.3220507812500002,-56.73322265625001,4.742138671875001,1.400560224089636,-379.27170868347343,-8.823529411764707
3.145,IMU0,2.8931835937500003,-55.842275390625005,2.9889843750000002,3.9215686274509807,-376.9607843137255,-8.333333333333334
3.155,IMU0,2.0309765625000002,-56.70448242187501,4.6367578125,2.73109243697479,-377.3109243697479,-7.492997198879552
3.165,IMU0,3.6212695312500003,-56.01471679687501,3.6404296875,1.1904761904761905,-374.92997198879556,-7.563025210084034
3.175,IMU0,2.93150390625,-55.871015625000005,3.65958984375,5.322128851540617,-377.10084033613447,-8.893557422969188
3.185,IMU0,4.320615234375,-56.436240234375006,2.998564453125,4.131652661064426,-378.36134453781517,-10.154061624649861
3.195,IMU0,2.60578125,-55.612353515625,2.85486328125,2.5210084033613445,-375.8403361344538,-11.554621848739496
3.205,IMU0,3.9853125000000005,-55.20041015625,2.8836035156250004,2.73109243697479,-376.05042016806726,-12.605042016806724
3.215,IMU0,2.557880859375,-55.229150390625,3.0656250000000003,2.73109243697479,-377.66106442577035,-13.305322128851541
3.225,IMU0,3.496728515625,-55.765634765625,2.6728417968750002,5.2521008403361344,-376.7507002801121,-14.285714285714286
3.235,IMU0,1.906435546875,-58.419316406250005,2.93150390625,6.0924369747899165,-377.17086834733897,-14.915966386554622
3.245,IMU0,2.835703125,-57.700810546875005,1.7339941406250001,3.151260504201681,-377.66106442577035,-15.19607843137255
3.255,IMU0,2.31837890625,-56.647001953125006,3.1039453125,6.022408963585434,-377.8711484593838,-14.565826330532213
3.265,IMU0,2.9027636718750003,-56.033876953125,2.12677734375,4.831932773109244,-379.4817927170869,-14.84593837535014
3.275,IMU0,2.375859375,-55.29621093750001,1.9160156250000002,-1.2605042016806722,-377.3809523809524,-15.266106442577032
3.285,IMU0,2.529140625,-55.420751953125006,2.1746777343750003,-1.4705882352941178,-379.6918767507003,-16.106442577030812
3.295,IMU0,1.7723144531250001,-55.238730468750006,3.23806640625,0.0700280112044818,-380.1120448179272,-17.43697478991597
3.305,IMU0,1.9255957031250002,-55.08544921875001,3.1997460937500004,3.781512605042017,-382.21288515406167,-18.137254901960784
3.315,IMU0,1.36037109375,-54.520224609375006,2.9794042968750003,2.9411764705882355,-384.87394957983196,-17.857142857142858
3.325,IMU0,0.833466796875,-54.8363671875,2.1938378906250002,-2.8711484593837535,-389.91596638655466,-16.456582633053223
3.335,IMU0,0.45984375000000005,-54.443583984375,3.65958984375,-1.7507002801120448,-393.62745098039215,-14.075630252100842
3.345,IMU0,1.8393750000000002,-54.759726562500006,3.113525390625,0.350140056022409,-396.00840336134456,-13.23529411764706
3.355,IMU0,2.289638671875,-54.328623046875,4.349355468750001,0.6302521008403361,-396.49859943977594,-13.795518207282914
3.365,IMU0,1.7723144531250001,-54.922587890625,4.914580078125001,1.9607843137254903,-400.4201680672269,-13.515406162464986
3.375,IMU0,1.120869140625,-57.8253515625,3.6883300781250004,5.2521008403361344,-402.03081232492997,-12.955182072829132
3.385,IMU0,2.1938378906250002,-57.365507812500006,3.899091796875,0.7703081232492998,-402.4509803921569,-12.53501400560224
3.395,IMU0,1.9926562500000002,-56.053037109375005,2.692001953125,-2.100840336134454,-402.8011204481793,-11.904761904761905
3.405,IMU0,1.7723144531250001,-55.008808593750004,4.320615234375,0,-405.672268907563,-11.414565826330533
3.415,IMU0,2.212998046875,-53.2269140625,5.163662109375,2.801120448179272,-405.812324929972,-10.714285714285715
3.425,IMU0,1.7723144531250001,-51.52166015625,3.4105078125,7.563025210084034,-408.4733893557423,-9.663865546218489
3.435,IMU0,3.190166015625,-52.3838671875,4.416416015625,8.823529411764707,-409.4537815126051,-9.033613445378151
3.445,IMU0,2.768642578125,-56.627841796875,2.8165429687500003,4.201680672268908,-409.17366946778714,-10.154061624649861
3.455,IMU0,4.282294921875001,-56.991884765625,4.531376953125,4.481792717086835,-403.2212885154062,-11.764705882352942
3.465,IMU0,2.6441015625000004,-54.022060546875004,3.171005859375,5.5322128851540615,-405.672268907563,-12.815126050420169
3.475,IMU0,3.00814453125,-52.163525390625004,4.7804589843750005,5.742296918767507,-403.1512605042017,-12.88515406162465
3.485,IMU0,3.1805859375,-50.429531250000004,4.0236328125,7.002801120448179,-400.6302521008404,-13.025210084033613
3.495,IMU0,2.634521484375,-48.350654296875,3.324287109375,6.442577030812325,-399.7198879551821,-14.705882352941178
3.505,IMU0,3.3338671875,-47.181884765625,3.3626074218750004,4.971988795518207,-397.12885154061627,-16.38655462184874
3.515,IMU0,2.481240234375,-45.390410156250006,2.615361328125,2.6610644257703084,-394.9579831932773,-17.99719887955182
3.525,IMU0,2.136357421875,-43.148671875000005,3.1518457031250002,-3.2212885154061626,-392.8571428571429,-18.067226890756302
3.535,IMU0,2.078876953125,-40.705751953125,3.6116894531250003,1.400560224089636,-393.69747899159665,-18.417366946778714
3.545,IMU0,1.542392578125,-37.640126953125005,3.2859667968750004,8.053221288515406,-393.4873949579832,-18.837535014005603
3.555,IMU0,1.2645703125,-34.43080078125,3.3338671875,4.971988795518207,-393.62745098039215,-18.207282913165265
3.565,IMU0,1.427431640625,-30.301787109375002,2.47166015625,1.4705882352941178,-394.88795518207286,-17.57703081232493
3.575,IMU0,1.178349609375,-27.696005859375003,3.42966796875,0.21008403361344538,-395.37815126050424,-16.946778711484594
3.585,IMU0,0.5652246093750001,-24.400458984375003,4.11943359375,-1.6106442577030813,-395.7282913165266,-16.106442577030812
3.595,IMU0,0.9675878906250001,-20.961210937500002,3.6979101562500003,-1.050420168067227,-396.7787114845938,-15.476190476190476
3.605,IMU0,0.28740234375,-18.24046875,4.397255859375,2.9411764705882355,-401.47058823529414,-14.42577030812325
3.615,IMU0,0.9005273437500001,-15.99873046875,3.3338671875,5.042016806722689,-405.0420168067227,-13.515406162464986
3.625,IMU0,0.929267578125,-10.873388671875,2.9889843750000002,2.73109243697479,-410.5742296918768,-10.784313725490197
3.635,IMU0,0.37362304687500003,-9.014853515625001,3.6021093750000004,2.5210084033613445,-414.5658263305322,-9.523809523809524
3.645,IMU0,1.465751953125,-7.1658984375,3.3626074218750004,4.761904761904762,-416.8767507002801,-9.523809523809524
3.655,IMU0,1.159189453125,-5.757626953125,3.81287109375,4.831932773109244,-416.38655462184875,-9.943977591036415
3.665,IMU0,1.4082714843750002,-4.44515625,3.554208984375,5.742296918767507,-417.08683473389357,-10.644257703081234
3.675,IMU0,0.6227050781250001,-3.4105078125,3.075205078125,5.8123249299719895,-416.8767507002801,-10.364145658263306
3.685,IMU0,0.890947265625,-2.47166015625,3.7074902343750002,7.633053221288516,-415.96638655462186,-9.73389355742297
3.695,IMU0,0.9771679687500001,-1.66693359375,2.5866210937500003,13.165266106442578,-415.6162464985995,-9.38375350140056
3.705,IMU0,1.312470703125,-0.756826171875,3.4392480468750004,7.072829131652662,-413.65546218487395,-8.61344537815126
3.715,IMU0,0.8622070312500001,-0.23950195312500003,2.31837890625,6.162464985994398,-414.9859943977591,-8.683473389355743
3.725,IMU0,1.149609375,0.38320312500000003,3.1997460937500004,6.792717086834735,-416.03641456582636,-9.38375350140056
3.735,IMU0,0.910107421875,0.67060546875,2.212998046875,5.042016806722689,-412.8151260504202,-9.803921568627452
3.745,IMU0,1.465751953125,1.3699511718750002,2.9123437500000002,4.901960784313726,-410.7142857142857,-9.803921568627452
3.755,IMU0,0.55564453125,1.714833984375,2.308798828125,2.2408963585434174,-412.60504201680675,-9.523809523809524
3.765,IMU0,1.044228515625,0.3065625,3.31470703125,-0.1400560224089636,-412.04481792717087,-8.403361344537815
3.775,IMU0,0.9196875000000001,0.047900390625000004,2.8836035156250004,6.442577030812325,-410.7142857142857,-7.563025210084034
3.785,IMU0,1.3699511718750002,0.20118164062500002,2.7590625,5.9523809523809526,-409.94397759103646,-6.722689075630252
3.795,IMU0,0.890947265625,0.38320312500000003,2.7494824218750002,4.131652661064426,-412.3949579831933,-6.022408963585434
3.805,IMU0,1.619033203125,0.5843847656250001,2.711162109375,7.42296918767507,-410.0840336134454,-5.5322128851540615
3.815,IMU0,0.9963281250000001,0.795146484375,2.462080078125,3.2913165266106446,-409.24369747899163,-4.971988795518207
3.825,IMU0,2.069296875,1.005908203125,3.0273046875,5.042016806722689,-409.0336134453782,-5.112044817927171
3.835,IMU0,1.159189453125,1.140029296875,1.8393750000000002,4.201680672268908,-407.0028011204482,-5.182072829131653
3.845,IMU0,2.308798828125,1.178349609375,3.094365234375,3.2913165266106446,-405.1820728291317,-5.392156862745098
3.855,IMU0,1.005908203125,1.2933105468750001,3.496728515625,-0.4901960784313726,-402.66106442577035,-4.69187675070028
3.865,IMU0,2.1938378906250002,1.3220507812500002,3.247646484375,4.901960784313726,-402.59103641456585,-4.411764705882353
3.875,IMU0,1.4561718750000001,1.37953125,2.08845703125,6.582633053221289,-402.8011204481793,-4.271708683473389
3.885,IMU0,1.9734960937500001,1.4849121093750002,3.7745507812500003,0.4901960784313726,-400.98039215686276,-3.781512605042017
3.895,IMU0,2.040556640625,1.542392578125,1.9160156250000002,-1.8207282913165266,-397.8991596638656,-3.361344537815126
3.905,IMU0,2.8261230468750003,1.8489550781250002,2.0309765625000002,-0.1400560224089636,-398.66946778711485,-3.5714285714285716
3.915,IMU0,1.9255957031250002,1.6956738281250001,3.23806640625,-0.1400560224089636,-397.54901960784315,-3.641456582633053
3.925,IMU0,2.8931835937500003,2.0309765625000002,2.615361328125,3.081232492997199,-393.8375350140056,-3.781512605042017
3.935,IMU0,2.538720703125,1.9255957031250002,3.42966796875,-1.680672268907563,-392.3669467787115,-3.9215686274509807
3.945,IMU0,2.375859375,2.1076171875000003,2.28005859375,6.442577030812325,-390.19607843137254,-4.69187675070028
3.955,IMU0,2.404599609375,2.3279589843750004,2.864443359375,0.8403361344537815,-388.72549019607845,-5.322128851540617
3.965,IMU0,2.682421875,2.481240234375,2.35669921875,-1.2605042016806722,-386.764705882353,-6.162464985994398
3.975,IMU0,1.983076171875,2.39501953125,1.85853515625,-0.6302521008403361,-386.764705882353,-5.9523809523809526
3.985,IMU0,2.787802734375,2.692001953125,3.50630859375,-0.6302521008403361,-385.5042016806723,-6.022408963585434
3.995,IMU0,2.5866210937500003,2.8165429687500003,1.9639160156250002,-0.350140056022409,-387.2549019607843,-6.652661064425771
4.005,IMU0,2.7207421875,2.8931835937500003,3.2284863281250002,-0.2801120448179272,-386.2044817927171,-6.932773109243698
4.015,IMU0,2.117197265625,2.8261230468750003,2.519560546875,5.5322128851540615,-385.0840336134454,-7.492997198879552
4.025,IMU0,3.6787500000000004,3.036884765625,2.29921875,0.6302521008403361,-384.87394957983196,-8.19327731092437
4.035,IMU0,1.657353515625,2.941083984375,3.266806640625,-0.42016806722689076,-384.24369747899163,-8.053221288515406
4.045,IMU0,2.77822265625,3.16142578125,3.2189062500000003,-5.2521008403361344,-384.17366946778714,-7.42296918767507
4.055,IMU0,2.2513183593750004,3.4679882812500002,3.3817675781250003,-2.030812324929972,-384.87394957983196,-6.652661064425771
4.065,IMU0,2.375859375,3.5254687500000004,3.1326855468750003,-7.843137254901961,-383.1932773109244,-5.9523809523809526
4.075,IMU0,2.2608984375000003,3.6404296875,2.615361328125,-10.294117647058824,-383.1932773109244,-5.182072829131653
4.085,IMU0,2.615361328125,3.6883300781250004,2.8931835937500003,-5.9523809523809526,-381.6526610644258,-5.182072829131653
4.095,IMU0,2.6441015625000004,3.956572265625,2.8931835937500003,-3.2212885154061626,-379.5518207282913,-6.0924369747899165
4.105,IMU0,2.9698242187500004,4.109853515625001,2.93150390625,-7.563025210084034,-377.4509803921569,-6.932773109243698
4.115,IMU0,2.3471191406250003,4.224814453125,2.768642578125,-2.2408963585434174,-378.71148459383755,-8.403361344537815
4.125,IMU0,3.8607714843750003,4.397255859375,4.5984375,-2.5910364145658265,-380.32212885154064,-10.224089635854343
4.135,IMU0,1.62861328125,4.358935546875,3.2572265625,-0.4901960784313726,-379.6918767507003,-10.854341736694678
4.145,IMU0,1.4561718750000001,4.358935546875,1.7339941406250001,-2.380952380952381,-379.27170868347343,-9.453781512605042
4.155,IMU0,2.35669921875,4.742138671875001,4.0236328125,-0.4901960784313726,-378.9915966386555,-7.633053221288516
4.165,IMU0,2.069296875,4.828359375000001,2.4525,-7.773109243697479,-377.10084033613447,-6.0924369747899165
4.175,IMU0,3.4584082031250003,5.087021484375001,2.8069628906250004,-4.341736694677872,-375.5602240896359,-6.372549019607844
4.185,IMU0,2.8165429687500003,5.11576171875,3.8416113281250004,-7.282913165266106,-376.1904761904762,-7.563025210084034
4.195,IMU0,3.1518457031250002,5.278623046875,3.1422656250000003,-4.901960784313726,-374.15966386554624,-9.103641456582633
4.205,IMU0,2.20341796875,5.36484375,4.3876757812500005,-4.271708683473389,-371.7086834733894,-9.73389355742297
4.215,IMU0,2.3471191406250003,5.470224609375,3.8416113281250004,-3.431372549019608,-372.8991596638656,-9.73389355742297
4.225,IMU0,1.8393750000000002,5.566025390625001,4.224814453125,-1.7507002801120448,-376.33053221288515,-9.523809523809524
4.235,IMU0,2.0980371093750003,5.661826171875,3.65958984375,-0.8403361344537815,-373.9495798319328,-9.103641456582633
4.245,IMU0,2.596201171875,5.872587890625001,2.85486328125,0.1400560224089636,-375.35014005602244,-9.243697478991598
4.255,IMU0,2.768642578125,5.9779687500000005,3.879931640625,-2.6610644257703084,-375.8403361344538,-10.084033613445378
4.265,IMU0,2.5866210937500003,6.083349609375,3.6021093750000004,-3.081232492997199,-373.4593837535014,-10.57422969187675
4.275,IMU0,2.529140625,6.07376953125,3.745810546875,-1.680672268907563,-372.05882352941177,-11.344537815126051
4.285,IMU0,1.714833984375,6.274951171875,4.502636718750001,1.5406162464985995,-373.66946778711485,-11.134453781512606
4.295,IMU0,2.404599609375,6.916816406250001,4.243974609375,-1.680672268907563,-372.12885154061627,-10.504201680672269
4.305,IMU0,1.74357421875,6.734794921875,4.263134765625001,3.991596638655462,-372.3389355742297,-10.224089635854343
4.315,IMU0,3.2189062500000003,7.070097656250001,3.1518457031250002,2.801120448179272,-372.54901960784315,-10.644257703081234
4.325,IMU0,2.1746777343750003,7.0126171875,3.5637890625,-4.69187675070028,-371.07843137254906,-11.064425770308123
4.335,IMU0,3.2859667968750004,7.041357421875,3.075205078125,-4.69187675070028,-372.96918767507003,-12.114845938375352
4.345,IMU0,1.62861328125,7.185058593750001,4.6942382812500005,-4.761904761904762,-372.8991596638656,-12.394957983193278
4.355,IMU0,2.9506640625,7.443720703125001,3.400927734375,-5.112044817927171,-373.73949579831935,-12.605042016806724
4.365,IMU0,1.74357421875,7.367080078125,5.968388671875,-3.991596638655462,-374.3697478991597,-11.904761904761905
4.375,IMU0,2.366279296875,7.5682617187500005,4.761298828125001,-5.112044817927171,-375.35014005602244,-11.974789915966387
4.385,IMU0,1.9926562500000002,7.683222656250001,4.4834765625,-2.2408963585434174,-376.6106442577031,-11.624649859943979
4.395,IMU0,2.289638671875,7.635322265625001,4.42599609375,-3.2913165266106446,-377.59103641456585,-10.92436974789916
4.405,IMU0,2.692001953125,7.95146484375,4.31103515625,-4.761904761904762,-376.1904761904762,-10.714285714285715
4.415,IMU0,2.0980371093750003,7.7790234375,3.6979101562500003,-3.2212885154061626,-376.8207282913165,-10.92436974789916
4.425,IMU0,2.557880859375,7.8939843750000005,4.96248046875,-1.5406162464985995,-376.8207282913165,-11.27450980392157
4.435,IMU0,2.3279589843750004,7.91314453125,4.416416015625,-4.131652661064426,-376.47058823529414,-11.064425770308123
4.445,IMU0,2.4333398437500002,7.826923828125,4.96248046875,-1.6106442577030813,-376.1904761904762,-11.484593837535014
4.455,IMU0,2.7303222656250004,7.9323046875,4.3876757812500005,-1.400560224089636,-375.5602240896359,-11.69467787114846
4.465,IMU0,2.481240234375,7.8939843750000005,4.6271777343750005,-3.081232492997199,-376.7507002801121,-12.394957983193278
4.475,IMU0,2.1938378906250002,7.8939843750000005,3.9182519531250004,-0.5602240896358543,-376.7507002801121,-12.675070028011206
4.485,IMU0,2.385439453125,7.8077636718750005,4.2535546875,-2.8711484593837535,-377.94117647058823,-12.46498599439776
4.495,IMU0,2.385439453125,7.865244140625,3.7745507812500003,-1.400560224089636,-377.03081232492997,-12.605042016806724
4.505,IMU0,2.634521484375,7.9323046875,4.11943359375,-0.21008403361344538,-377.2408963585434,-13.025210084033613
4.515,IMU0,2.6632617187500003,7.874824218750001,4.042792968750001,0.9803921568627452,-376.7507002801121,-13.375350140056023
4.525,IMU0,2.4333398437500002,7.817343750000001,3.88951171875,2.2408963585434174,-378.5014005602241,-14.145658263305323
4.535,IMU0,2.05013671875,7.922724609375001,4.014052734375,3.361344537815126,-377.94117647058823,-14.145658263305323
4.545,IMU0,2.16509765625,7.970625000000001,3.496728515625,2.380952380952381,-376.1904761904762,-14.075630252100842
4.555,IMU0,2.059716796875,7.874824218750001,3.554208984375,-0.1400560224089636,-375.91036414565826,-14.005602240896359
4.565,IMU0,2.155517578125,7.970625000000001,3.4105078125,1.3305322128851542,-376.05042016806726,-14.355742296918768
4.575,IMU0,1.8489550781250002,7.91314453125,3.23806640625,-2.030812324929972,-375.91036414565826,-14.635854341736696
4.585,IMU0,2.002236328125,7.961044921875001,3.420087890625,-0.7703081232492998,-374.08963585434174,-14.84593837535014
4.595,IMU0,1.5328125000000001,8.037685546875,3.6691699218750005,-2.100840336134454,-373.3893557422969,-14.565826330532213
4.605,IMU0,1.4465917968750002,7.941884765625001,3.5637890625,-4.831932773109244,-374.2997198879552,-14.075630252100842
4.615,IMU0,1.4849121093750002,8.018525390625001,3.4871484375,-4.481792717086835,-375.35014005602244,-13.23529411764706
4.625,IMU0,1.580712890625,7.961044921875001,3.1997460937500004,-0.9103641456582633,-375.8403361344538,-13.305322128851541
4.635,IMU0,1.427431640625,7.970625000000001,3.477568359375,-1.4705882352941178,-375.28011204481794,-12.955182072829132
4.645,IMU0,1.1879296875,8.0089453125,3.1422656250000003,-2.73109243697479,-375.4901960784314,-12.815126050420169
4.655,IMU0,1.3220507812500002,7.970625000000001,3.4392480468750004,-2.030812324929972,-376.890756302521,-12.324929971988796
4.665,IMU0,1.2070898437500002,7.961044921875001,3.554208984375,1.3305322128851542,-375.28011204481794,-11.974789915966387
4.675,IMU0,1.2454101562500002,8.037685546875,3.8511914062500003,1.5406162464985995,-376.47058823529414,-11.554621848739496
4.685,IMU0,1.1112890625,7.970625000000001,3.16142578125,2.73109243697479,-378.1512605042017,-11.27450980392157
4.695,IMU0,1.312470703125,7.999365234375,3.5254687500000004,1.1904761904761905,-376.47058823529414,-10.434173669467787
4.705,IMU0,1.2549902343750001,7.961044921875001,3.50630859375,-0.700280112044818,-379.27170868347343,-9.943977591036415
4.715,IMU0,1.580712890625,8.037685546875,3.4679882812500002,-1.050420168067227,-378.1512605042017,-9.873949579831933
4.725,IMU0,1.197509765625,8.076005859375,3.650009765625,3.5714285714285716,-377.4509803921569,-9.663865546218489
4.735,IMU0,1.59029296875,8.10474609375,3.554208984375,-0.4901960784313726,-377.66106442577035,-9.38375350140056
4.745,IMU0,1.3699511718750002,7.91314453125,3.400927734375,0,-377.8011204481793,-8.96358543417367
4.755,IMU0,1.5328125000000001,8.085585937500001,3.4488281250000004,0.1400560224089636,-377.8011204481793,-8.753501400560225
4.765,IMU0,1.350791015625,8.076005859375,3.1422656250000003,-1.2605042016806722,-379.4117647058824,-8.823529411764707
4.775,IMU0,1.7339941406250001,8.018525390625001,3.5637890625,1.400560224089636,-379.6218487394958,-9.033613445378151
4.785,IMU0,1.4178515625,8.047265625,2.9794042968750003,3.361344537815126,-378.8515406162465,-9.313725490196079
4.795,IMU0,1.6860937500000002,7.970625000000001,3.31470703125,3.641456582633053,-378.08123249299723,-9.243697478991598
4.805,IMU0,1.6477734375000002,7.970625000000001,3.017724609375,3.5714285714285716,-376.890756302521,-9.173669467787116
4.815,IMU0,1.580712890625,8.0089453125,2.864443359375,1.1204481792717087,-375.8403361344538,-9.033613445378151
4.825,IMU0,1.7339941406250001,7.95146484375,2.864443359375,2.8711484593837535,-375.6302521008404,-9.033613445378151
4.835,IMU0,1.59029296875,8.018525390625001,2.768642578125,4.901960784313726,-374.22969187675073,-9.033613445378151
4.845,IMU0,1.66693359375,8.0089453125,2.462080078125,4.061624649859944,-374.6498599439776,-9.593837535014005
4.855,IMU0,1.389111328125,8.152646484375001,2.692001953125,1.7507002801120448,-373.1792717086835,-9.593837535014005
4.865,IMU0,0.910107421875,8.526269531250001,1.55197265625,1.8907563025210086,-374.08963585434174,-9.943977591036415
4.875,IMU0,1.1687695312500002,8.133486328125,2.47166015625,-0.7703081232492998,-374.5098039215686,-9.873949579831933
4.885,IMU0,1.7244140625000002,8.459208984375001,3.2189062500000003,1.8907563025210086,-371.8487394957983,-10.92436974789916
4.895,IMU0,1.37953125,8.44962890625,1.6381933593750002,4.69187675070028,-372.8991596638656,-12.53501400560224
4.905,IMU0,1.2549902343750001,8.305927734375,2.8740234375,2.100840336134454,-370.86834733893556,-13.445378151260504
4.915,IMU0,0.45984375000000005,8.210126953125,1.542392578125,2.380952380952381,-371.42857142857144,-13.795518207282914
4.925,IMU0,0.45026367187500005,8.190966796875001,2.1076171875000003,1.3305322128851542,-374.92997198879556,-13.445378151260504
4.935,IMU0,0.12454101562500001,8.06642578125,1.8872753906250002,5.112044817927171,-377.03081232492997,-13.515406162464986
4.945,IMU0,0.795146484375,8.095166015625,2.5099804687500002,7.002801120448179,-378.2212885154062,-12.53501400560224
4.955,IMU0,0.11496093750000001,8.229287109375,1.5711328125000001,5.6722689075630255,-381.2324929971989,-12.394957983193278
4.965,IMU0,0.047900390625000004,8.076005859375,1.9926562500000002,2.5210084033613445,-384.17366946778714,-12.184873949579833
4.975,IMU0,-0.44068359375000005,7.826923828125,1.944755859375,5.8123249299719895,-386.2745098039216,-11.764705882352942
4.985,IMU0,0.756826171875,8.363408203125001,3.477568359375,6.372549019607844,-386.48459383753504,-10.994397759103641
4.995,IMU0,-0.6610253906250001,7.903564453125001,1.657353515625,0.9803921568627452,-389.91596638655466,-10.014005602240896
5.005,IMU0,-0.7280859375000001,8.123906250000001,2.7303222656250004,-1.1904761904761905,-389.77591036414566,-9.173669467787116
5.015,IMU0,0.55564453125,7.865244140625,3.1997460937500004,0.2801120448179272,-389.91596638655466,-9.033613445378151
5.025,IMU0,-0.9580078125000001,7.884404296875,1.39869140625,-0.1400560224089636,-391.52661064425774,-8.053221288515406
5.035,IMU0,0.6227050781250001,7.970625000000001,3.2189062500000003,2.73109243697479,-391.9467787114846,-7.492997198879552
5.045,IMU0,-0.11496093750000001,7.826923828125,2.7399023437500003,2.8711484593837535,-392.01680672268907,-6.512605042016807
5.055,IMU0,0.296982421875,7.826923828125,2.8165429687500003,1.4705882352941178,-394.81792717086836,-5.9523809523809526
5.065,IMU0,0.028740234375000003,7.826923828125,2.9889843750000002,-0.6302521008403361,-393.4873949579832,-4.971988795518207
5.075,IMU0,-0.0383203125,7.7790234375,2.4525,1.8207282913165266,-395.0280112044818,-4.621848739495799
5.085,IMU0,0.9771679687500001,7.989785156250001,2.9602441406250004,3.5714285714285716,-395.93837535014006,-3.8515406162464987
5.095,IMU0,0.335302734375,7.922724609375001,3.0656250000000003,3.8515406162464987,-396.9887955182073,-3.711484593837535
5.105,IMU0,0.718505859375,8.219707031250001,2.366279296875,4.481792717086835,-395.6582633053221,-3.711484593837535
5.115,IMU0,1.350791015625,8.0089453125,3.956572265625,5.392156862745098,-394.25770308123253,-4.481792717086835
5.125,IMU0,0.47900390625000006,7.817343750000001,1.714833984375,2.801120448179272,-394.9579831932773,-5.322128851540617
5.135,IMU0,0.9771679687500001,7.91314453125,3.35302734375,6.512605042016807,-394.327731092437,-5.882352941176471
5.145,IMU0,0.5843847656250001,7.8077636718750005,2.08845703125,12.254901960784315,-391.7366946778712,-5.9523809523809526
5.155,IMU0,1.0346484375,7.8939843750000005,2.9506640625,10.364145658263306,-391.6666666666667,-5.742296918767507
5.165,IMU0,1.101708984375,7.903564453125001,2.0980371093750003,6.022408963585434,-391.3165266106443,-5.112044817927171
5.175,IMU0,1.2549902343750001,7.884404296875,1.8489550781250002,7.843137254901961,-390.1260504201681,-5.602240896358544
5.185,IMU0,0.9867480468750001,7.941884765625001,2.212998046875,4.341736694677872,-390.26610644257704,-6.652661064425771
5.195,IMU0,1.350791015625,7.846083984375,2.0213964843750003,1.3305322128851542,-388.2352941176471,-7.703081232492997
5.205,IMU0,1.159189453125,7.711962890625,2.682421875,6.022408963585434,-388.1652661064426,-8.823529411764707
5.215,IMU0,1.140029296875,7.846083984375,1.47533203125,5.5322128851540615,-387.67507002801125,-9.173669467787116
5.225,IMU0,0.59396484375,7.788603515625001,2.1076171875000003,8.893557422969188,-385.92436974789916,-9.103641456582633
5.235,IMU0,0.699345703125,7.817343750000001,1.47533203125,4.971988795518207,-387.18487394957987,-8.753501400560225
5.245,IMU0,0.833466796875,7.8077636718750005,1.753154296875,5.9523809523809526,-387.60504201680675,-8.61344537815126
5.255,IMU0,1.302890625,7.7407031250000005,1.4944921875000001,2.450980392156863,-386.34453781512605,-8.893557422969188
5.265,IMU0,1.0921289062500001,7.664062500000001,2.39501953125,3.361344537815126,-385.8543417366947,-9.73389355742297
5.275,IMU0,0.49816406250000006,7.587421875,2.1938378906250002,1.6106442577030813,-387.3949579831933,-9.663865546218489
5.285,IMU0,-0.335302734375,7.731123046875,1.082548828125,-0.7703081232492998,-389.4957983193278,-8.753501400560225
5.295,IMU0,1.274150390625,7.549101562500001,2.6536816406250003,-1.3305322128851542,-389.0056022408964,-8.053221288515406
5.305,IMU0,0.143701171875,7.64490234375,1.7723144531250001,-0.700280112044818,-388.5854341736695,-7.492997198879552
5.315,IMU0,1.2549902343750001,7.683222656250001,2.24173828125,-1.7507002801120448,-390.96638655462186,-7.703081232492997
5.325,IMU0,-0.12454101562500001,7.683222656250001,2.366279296875,-3.9215686274509807,-389.6358543417367,-7.072829131652662
5.335,IMU0,0.910107421875,7.60658203125,2.2608984375000003,-1.1904761904761905,-391.1764705882353,-7.142857142857143
5.345,IMU0,0.21076171875000002,7.549101562500001,2.8165429687500003,-0.21008403361344538,-390.96638655462186,-6.372549019607844
5.355,IMU0,0.45026367187500005,7.635322265625001,2.519560546875,-1.8207282913165266,-392.08683473389357,-5.8123249299719895
5.365,IMU0,0.70892578125,7.520361328125,2.682421875,1.8207282913165266,-391.52661064425774,-5.322128851540617
5.375,IMU0,1.2166699218750001,7.616162109375001,2.54830078125,-0.2801120448179272,-390.33613445378154,-5.182072829131653
5.385,IMU0,0.6227050781250001,7.5682617187500005,2.7303222656250004,-1.680672268907563,-390.19607843137254,-4.901960784313726
5.395,IMU0,1.005908203125,7.60658203125,2.8931835937500003,0,-389.0056022408964,-5.322128851540617
5.405,IMU0,0.929267578125,7.597001953125001,2.375859375,1.1204481792717087,-388.79551820728295,-4.971988795518207
5.415,IMU0,1.5998730468750002,7.5012011718750005,3.6212695312500003,2.3109243697478994,-387.46498599439775,-5.112044817927171
5.425,IMU0,1.3220507812500002,7.635322265625001,2.62494140625,2.73109243697479,-386.9047619047619,-5.602240896358544
5.435,IMU0,1.2549902343750001,7.587421875,3.4679882812500002,5.5322128851540615,-384.3837535014006,-6.0924369747899165
5.445,IMU0,1.025068359375,7.529941406250001,2.60578125,4.761904761904762,-382.63305322128855,-6.442577030812325
5.455,IMU0,1.3412109375,7.45330078125,2.615361328125,3.011204481792717,-382.00280112044817,-6.582633053221289
5.465,IMU0,1.3220507812500002,7.5012011718750005,2.7590625,1.680672268907563,-380.25210084033614,-6.722689075630252
5.475,IMU0,1.4465917968750002,7.5012011718750005,2.845283203125,2.5910364145658265,-376.47058823529414,-6.932773109243698
5.485,IMU0,1.5232324218750002,7.482041015625001,2.9794042968750003,0.6302521008403361,-375.8403361344538,-7.563025210084034
5.495,IMU0,1.5328125000000001,7.482041015625001,2.9123437500000002,-1.1204481792717087,-374.22969187675073,-8.19327731092437
5.505,IMU0,1.465751953125,7.529941406250001,2.682421875,3.2913165266106446,-372.96918767507003,-8.823529411764707
5.515,IMU0,1.43701171875,7.424560546875001,2.6441015625000004,1.8207282913165266,-371.49859943977594,-9.38375350140056
5.525,IMU0,1.3220507812500002,7.367080078125,2.9123437500000002,-1.6106442577030813,-370.1680672268908,-9.663865546218489
5.535,IMU0,1.4561718750000001,7.386240234375,2.212998046875,3.991596638655462,-368.4173669467787,-10.224089635854343
5.545,IMU0,1.005908203125,7.4149804687500005,3.08478515625,0.0700280112044818,-366.45658263305324,-9.73389355742297
5.555,IMU0,1.43701171875,7.45330078125,2.366279296875,-0.5602240896358543,-365.89635854341736,-10.014005602240896
5.565,IMU0,1.4849121093750002,7.4149804687500005,2.5866210937500003,2.450980392156863,-364.2857142857143,-10.504201680672269
5.575,IMU0,1.197509765625,7.434140625,2.8836035156250004,-2.100840336134454,-364.84593837535016,-11.204481792717088
5.585,IMU0,1.302890625,7.3287597656250005,2.117197265625,1.5406162464985995,-364.77591036414566,-12.044817927170868
5.595,IMU0,0.7472460937500001,7.271279296875001,2.8261230468750003,2.8711484593837535,-363.2352941176471,-11.974789915966387
5.605,IMU0,0.8238867187500001,7.30001953125,2.9602441406250004,0.9103641456582633,-363.65546218487395,-10.994397759103641
5.615,IMU0,1.2549902343750001,7.357500000000001,2.62494140625,2.030812324929972,-364.07563025210084,-11.064425770308123
5.625,IMU0,0.871787109375,7.223378906250001,2.93150390625,-1.680672268907563,-365.26610644257704,-10.714285714285715
5.635,IMU0,1.140029296875,7.309599609375001,2.538720703125,-1.1904761904761905,-364.6358543417367,-10.854341736694678
5.645,IMU0,0.6610253906250001,7.290439453125001,2.77822265625,0.700280112044818,-364.07563025210084,-10.854341736694678
5.655,IMU0,0.852626953125,7.223378906250001,2.8069628906250004,1.050420168067227,-364.6358543417367,-10.92436974789916
5.665,IMU0,0.8238867187500001,7.232958984375,2.54830078125,0.1400560224089636,-365.1260504201681,-10.784313725490197
5.675,IMU0,0.5748046875,7.290439453125001,3.4679882812500002,-1.2605042016806722,-365.4761904761905,-10.084033613445378
5.685,IMU0,0.680185546875,7.098837890625,2.768642578125,-1.8907563025210086,-363.72549019607845,-9.593837535014005
5.695,IMU0,0.7472460937500001,7.242539062500001,3.036884765625,0.8403361344537815,-365.26610644257704,-9.313725490196079
5.705,IMU0,1.178349609375,7.252119140625,2.93150390625,-2.3109243697478994,-366.8067226890756,-9.313725490196079
5.715,IMU0,1.101708984375,7.185058593750001,2.845283203125,-2.450980392156863,-366.2464985994398,-9.38375350140056
5.725,IMU0,0.8238867187500001,7.1658984375,2.9602441406250004,-1.2605042016806722,-367.436974789916,-9.453781512605042
5.735,IMU0,0.5460644531250001,7.137158203125001,3.1805859375,-2.6610644257703084,-366.7366946778712,-9.103641456582633
5.745,IMU0,0.929267578125,7.14673828125,2.864443359375,-4.201680672268908,-365.7563025210084,-8.823529411764707
5.755,IMU0,0.833466796875,7.10841796875,3.4105078125,-2.030812324929972,-366.38655462184875,-8.61344537815126
5.765,IMU0,1.274150390625,7.194638671875,3.00814453125,1.3305322128851542,-366.8767507002801,-8.96358543417367
5.775,IMU0,0.7855664062500001,7.117998046875001,3.3913476562500002,2.2408963585434174,-368.34733893557427,-9.033613445378151
5.785,IMU0,0.9963281250000001,7.079677734375,2.7207421875,3.781512605042017,-367.50700280112045,-9.38375350140056
5.795,IMU0,0.46942382812500005,7.117998046875001,3.0560449218750003,-0.21008403361344538,-367.8571428571429,-8.96358543417367
5.805,IMU0,0.852626953125,7.070097656250001,2.711162109375,0.1400560224089636,-368.1372549019608,-8.543417366946779
5.815,IMU0,0.67060546875,7.070097656250001,3.42966796875,3.2913165266106446,-368.69747899159665,-8.123249299719888
5.825,IMU0,1.43701171875,7.060517578125,2.7590625,0.9103641456582633,-368.9075630252101,-8.473389355742297
5.835,IMU0,0.833466796875,7.070097656250001,3.573369140625,2.801120448179272,-367.2268907563025,-8.753501400560225
5.845,IMU0,1.120869140625,7.060517578125,2.62494140625,1.9607843137254903,-367.296918767507,-9.313725490196079
5.855,IMU0,0.6610253906250001,6.964716796875001,2.93150390625,3.641456582633053,-367.7170868347339,-9.173669467787116
5.865,IMU0,1.0154882812500001,7.003037109375001,3.1422656250000003,2.6610644257703084,-366.03641456582636,-9.033613445378151
5.875,IMU0,0.775986328125,7.0126171875,2.5674609375000004,1.1904761904761905,-366.8767507002801,-8.893557422969188
5.885,IMU0,0.9675878906250001,6.99345703125,3.50630859375,1.3305322128851542,-368.1372549019608,-9.033613445378151
5.895,IMU0,0.890947265625,6.95513671875,2.7494824218750002,5.602240896358544,-367.50700280112045,-9.243697478991598
5.905,IMU0,0.948427734375,6.907236328125,3.0273046875,3.011204481792717,-367.2268907563025,-9.313725490196079
5.915,IMU0,0.689765625,6.9359765625000005,2.845283203125,0,-367.2268907563025,-9.033613445378151
5.925,IMU0,0.756826171875,7.0221972656250005,3.1039453125,0.700280112044818,-367.01680672268907,-9.173669467787116
5.935,IMU0,1.07296875,6.964716796875001,3.1422656250000003,4.061624649859944,-366.31652661064425,-9.313725490196079
5.945,IMU0,0.8047265625000001,6.926396484375,3.0560449218750003,-0.6302521008403361,-367.50700280112045,-9.523809523809524
5.955,IMU0,0.929267578125,6.926396484375,2.93150390625,1.1904761904761905,-366.7366946778712,-9.73389355742297
5.965,IMU0,0.613125,6.868916015625,3.1039453125,-1.680672268907563,-366.7366946778712,-9.663865546218489
5.975,IMU0,1.025068359375,6.811435546875001,2.941083984375,1.680672268907563,-365.33613445378154,-9.593837535014005
5.985,IMU0,0.5652246093750001,6.8593359375,3.2093261718750004,5.9523809523809526,-364.77591036414566,-9.523809523809524
5.995,IMU0,0.929267578125,6.811435546875001,2.596201171875,3.8515406162464987,-363.4453781512605,-9.453781512605042
6.005,IMU0,0.910107421875,6.811435546875001,3.094365234375,4.971988795518207,-364.84593837535016,-9.523809523809524
6.015,IMU0,0.9963281250000001,6.8593359375,3.094365234375,4.341736694677872,-363.515406162465,-9.73389355742297
6.025,IMU0,0.718505859375,6.792275390625001,2.615361328125,4.341736694677872,-365.40616246498604,-10.224089635854343
6.035,IMU0,1.0154882812500001,6.84017578125,3.094365234375,3.991596638655462,-363.515406162465,-10.294117647058824
6.045,IMU0,0.5843847656250001,6.763535156250001,2.921923828125,0.8403361344537815,-362.3949579831933,-9.873949579831933
6.055,IMU0,0.8047265625000001,6.811435546875001,3.1326855468750003,1.5406162464985995,-362.60504201680675,-9.38375350140056
6.065,IMU0,1.0154882812500001,6.734794921875,2.9027636718750003,3.8515406162464987,-361.9747899159664,-9.523809523809524
6.075,IMU0,1.082548828125,6.811435546875001,3.171005859375,-0.4901960784313726,-361.5546218487395,-9.523809523809524
6.085,IMU0,0.948427734375,6.744375000000001,2.634521484375,1.2605042016806722,-363.2352941176471,-9.73389355742297
6.095,IMU0,0.9388476562500001,6.763535156250001,2.8931835937500003,3.641456582633053,-361.8347338935574,-10.084033613445378
6.105,IMU0,1.1112890625,6.744375000000001,2.634521484375,1.400560224089636,-361.34453781512605,-10.364145658263306
6.115,IMU0,0.613125,6.725214843750001,3.324287109375,0.1400560224089636,-361.41456582633054,-10.084033613445378
6.125,IMU0,1.0346484375,6.6964746093750005,2.70158203125,-0.5602240896358543,-360.22408963585434,-9.873949579831933
6.135,IMU0,0.871787109375,6.658154296875001,3.4488281250000004,0.2801120448179272,-360.29411764705884,-9.803921568627452
6.145,IMU0,0.8622070312500001,6.725214843750001,2.6728417968750002,-0.2801120448179272,-361.41456582633054,-10.084033613445378
6.155,IMU0,0.6227050781250001,6.744375000000001,3.036884765625,4.411764705882353,-360.0840336134454,-10.154061624649861
6.165,IMU0,1.0921289062500001,6.7060546875,2.54830078125,2.5910364145658265,-360.5742296918768,-10.294117647058824
6.175,IMU0,0.871787109375,6.68689453125,2.596201171875,1.8907563025210086,-362.3949579831933,-10.644257703081234
6.185,IMU0,0.7855664062500001,6.571933593750001,3.324287109375,3.8515406162464987,-361.6946778711485,-10.504201680672269
6.195,IMU0,0.9196875000000001,6.64857421875,3.1326855468750003,0.8403361344537815,-360.0140056022409,-10.294117647058824
6.205,IMU0,0.8430468750000001,6.6294140625,3.094365234375,6.0924369747899165,-363.1652661064426,-10.294117647058824
6.215,IMU0,0.9580078125000001,6.677314453125001,2.9123437500000002,1.4705882352941178,-361.06442577030816,-10.504201680672269
6.225,IMU0,0.7280859375000001,6.600673828125,3.0464648437500004,0.4901960784313726,-361.2044817927171,-10.364145658263306
6.235,IMU0,1.082548828125,6.581513671875,2.442919921875,-2.8711484593837535,-362.2549019607843,-10.224089635854343
6.245,IMU0,0.42152343750000004,6.562353515625,3.4871484375,-1.1904761904761905,-362.2549019607843,-10.014005602240896
6.255,IMU0,1.178349609375,6.581513671875,2.481240234375,4.271708683473389,-362.67507002801125,-10.224089635854343
6.265,IMU0,1.063388671875,6.485712890625001,3.190166015625,1.5406162464985995,-361.6946778711485,-10.364145658263306
6.275,IMU0,0.9388476562500001,6.53361328125,2.845283203125,1.8207282913165266,-361.764705882353,-10.854341736694678
6.285,IMU0,0.70892578125,6.562353515625,3.2955468750000003,1.3305322128851542,-362.46498599439775,-10.434173669467787
6.295,IMU0,1.025068359375,6.5431933593750005,2.9698242187500004,2.170868347338936,-362.7450980392157,-10.644257703081234
6.305,IMU0,0.8622070312500001,6.581513671875,3.3913476562500002,2.5910364145658265,-363.4453781512605,-10.504201680672269
6.315,IMU0,0.775986328125,6.53361328125,3.4584082031250003,4.69187675070028,-363.2352941176471,-10.224089635854343
6.325,IMU0,1.51365234375,6.524033203125001,3.190166015625,-0.0700280112044818,-363.02521008403363,-10.57422969187675
6.335,IMU0,0.63228515625,6.418652343750001,3.1326855468750003,4.551820728291316,-364.84593837535016,-10.784313725490197
6.345,IMU0,1.0921289062500001,6.524033203125001,3.1231054687500004,1.9607843137254903,-365.40616246498604,-11.27450980392157
6.355,IMU0,0.7472460937500001,6.4761328125,3.171005859375,4.481792717086835,-364.3557422969188,-10.994397759103641
6.365,IMU0,1.2933105468750001,6.49529296875,3.017724609375,3.781512605042017,-364.2857142857143,-11.27450980392157
6.375,IMU0,0.9388476562500001,6.418652343750001,2.864443359375,3.9215686274509807,-365.40616246498604,-11.414565826330533
6.385,IMU0,1.2070898437500002,6.389912109375,3.31470703125,5.322128851540617,-362.8851540616247,-11.554621848739496
6.395,IMU0,0.890947265625,6.447392578125,2.596201171875,3.011204481792717,-362.60504201680675,-11.764705882352942
6.405,IMU0,0.9675878906250001,6.399492187500001,3.1997460937500004,5.8123249299719895,-363.09523809523813,-11.69467787114846
6.415,IMU0,1.312470703125,6.399492187500001,2.768642578125,1.8207282913165266,-362.3249299719888,-11.69467787114846
6.425,IMU0,1.2645703125,6.437812500000001,2.768642578125,0.42016806722689076,-362.11484593837537,-12.044817927170868
6.435,IMU0,1.101708984375,6.4569726562500005,3.5158886718750004,1.7507002801120448,-361.2745098039216,-12.394957983193278
6.445,IMU0,1.427431640625,6.399492187500001,2.77822265625,4.341736694677872,-360.6442577030812,-12.955182072829132
6.455,IMU0,0.910107421875,6.389912109375,3.400927734375,2.8711484593837535,-358.75350140056025,-13.025210084033613
6.465,IMU0,1.2166699218750001,6.3228515625,2.385439453125,6.512605042016807,-358.4733893557423,-13.095238095238097
6.475,IMU0,0.8430468750000001,6.351591796875001,2.7973828125,-0.1400560224089636,-358.33333333333337,-13.165266106442578
6.485,IMU0,1.044228515625,6.361171875,2.7494824218750002,-0.1400560224089636,-357.7731092436975,-12.745098039215687
6.495,IMU0,1.0346484375,6.361171875,2.7303222656250004,-0.0700280112044818,-357.21288515406167,-12.815126050420169
6.505,IMU0,1.140029296875,6.332431640625001,2.9698242187500004,1.2605042016806722,-357.49299719887955,-13.095238095238097
6.515,IMU0,1.044228515625,6.3036914062500005,3.16142578125,4.271708683473389,-356.5826330532213,-13.445378151260504
6.525,IMU0,0.6610253906250001,6.274951171875,2.9602441406250004,4.271708683473389,-354.83193277310926,-13.445378151260504
6.535,IMU0,0.6610253906250001,6.34201171875,2.787802734375,1.680672268907563,-354.76190476190476,-12.955182072829132
6.545,IMU0,1.063388671875,6.274951171875,2.6536816406250003,0.700280112044818,-356.6526610644258,-12.88515406162465
6.555,IMU0,0.833466796875,6.198310546875001,2.8836035156250004,0.21008403361344538,-354.4817927170869,-12.815126050420169
6.565,IMU0,1.0921289062500001,6.22705078125,2.7590625,-1.4705882352941178,-353.64145658263305,-12.815126050420169
6.575,IMU0,0.775986328125,6.236630859375,2.7973828125,-2.450980392156863,-352.8711484593838,-12.605042016806724
6.585,IMU0,0.814306640625,6.198310546875001,3.1805859375,1.6106442577030813,-352.59103641456585,-12.605042016806724
6.595,IMU0,1.149609375,6.236630859375,2.8931835937500003,0.5602240896358543,-352.03081232492997,-12.394957983193278
6.605,IMU0,0.39278320312500004,6.1312500000000005,2.835703125,1.2605042016806722,-354.76190476190476,-12.394957983193278
6.615,IMU0,0.948427734375,6.207890625,2.835703125,-1.4705882352941178,-354.3417366946779,-12.394957983193278
6.625,IMU0,0.41194335937500004,6.1695703125,2.9698242187500004,1.400560224089636,-356.02240896358546,-12.184873949579833
6.635,IMU0,0.6035449218750001,6.179150390625001,2.9698242187500004,-4.831932773109244,-355.672268907563,-11.834733893557424
6.645,IMU0,0.59396484375,6.1312500000000005,3.420087890625,2.380952380952381,-356.0924369747899,-11.554621848739496
6.655,IMU0,0.756826171875,6.112089843750001,3.171005859375,-3.5014005602240896,-357.3529411764706,-11.344537815126051
6.665,IMU0,0.6610253906250001,6.159990234375001,3.1997460937500004,0.21008403361344538,-357.91316526610643,-10.994397759103641
6.675,IMU0,0.680185546875,6.1695703125,3.2763867187500004,-0.9803921568627452,-357.2829131652661,-10.854341736694678
6.685,IMU0,0.5269042968750001,6.207890625,3.3721875000000003,-0.4901960784313726,-358.68347338935575,-10.644257703081234
6.695,IMU0,0.737666015625,6.102509765625,3.036884765625,2.030812324929972,-359.24369747899163,-10.434173669467787
6.705,IMU0,0.8238867187500001,6.1312500000000005,3.2093261718750004,-1.8207282913165266,-359.24369747899163,-10.364145658263306
6.715,IMU0,1.005908203125,6.07376953125,3.16142578125,1.7507002801120448,-359.24369747899163,-10.154061624649861
6.725,IMU0,0.7280859375000001,6.112089843750001,3.35302734375,0.9803921568627452,-360.5742296918768,-10.504201680672269
6.735,IMU0,0.9675878906250001,6.054609375,3.1997460937500004,-0.9103641456582633,-360.6442577030812,-10.294117647058824
6.745,IMU0,0.9196875000000001,6.0162890625,3.31470703125,3.641456582633053,-360.1540616246499,-10.504201680672269
6.755,IMU0,0.910107421875,6.054609375,3.2955468750000003,0.5602240896358543,-360.7843137254902,-10.57422969187675
6.765,IMU0,0.833466796875,6.0641894531250005,3.4679882812500002,1.8907563025210086,-360.92436974789916,-10.224089635854343
6.775,IMU0,1.0921289062500001,6.054609375,3.1326855468750003,-0.4901960784313726,-360.36414565826334,-10.434173669467787
6.785,IMU0,1.2166699218750001,6.03544921875,3.343447265625,4.061624649859944,-359.73389355742296,-10.504201680672269
6.795,IMU0,1.2549902343750001,6.006708984375001,3.1326855468750003,-2.030812324929972,-359.80392156862746,-11.204481792717088
6.805,IMU0,0.890947265625,6.045029296875001,3.3051269531250003,1.5406162464985995,-359.4537815126051,-11.27450980392157
6.815,IMU0,0.9867480468750001,6.0162890625,2.8740234375,2.5910364145658265,-359.24369747899163,-11.484593837535014
6.825,IMU0,0.9963281250000001,5.9779687500000005,3.036884765625,3.081232492997199,-358.2633053221289,-11.624649859943979
6.835,IMU0,0.9196875000000001,5.99712890625,2.62494140625,0.6302521008403361,-358.5434173669468,-11.624649859943979
6.845,IMU0,1.063388671875,5.9779687500000005,3.1039453125,3.991596638655462,-356.0924369747899,-11.834733893557424
6.855,IMU0,1.0921289062500001,6.054609375,2.35669921875,2.8711484593837535,-357.00280112044817,-12.184873949579833
6.865,IMU0,0.8813671875000001,5.910908203125,2.8836035156250004,0.700280112044818,-356.1624649859944,-12.394957983193278
6.875,IMU0,0.7280859375000001,5.910908203125,2.62494140625,0.5602240896358543,-354.5518207282913,-12.745098039215687
6.885,IMU0,0.9196875000000001,5.99712890625,2.5674609375000004,-1.8207282913165266,-354.6218487394958,-12.675070028011206
6.895,IMU0,0.44068359375000005,5.958808593750001,2.9889843750000002,3.011204481792717,-354.06162464985994,-12.745098039215687
6.905,IMU0,0.70892578125,5.853427734375001,2.462080078125,-0.21008403361344538,-353.2913165266107,-12.955182072829132
6.915,IMU0,0.67060546875,5.910908203125,2.8836035156250004,3.781512605042017,-352.8011204481793,-12.88515406162465
6.925,IMU0,0.46942382812500005,5.901328125,2.442919921875,0.2801120448179272,-352.3109243697479,-13.165266106442578
6.935,IMU0,0.3065625,5.805527343750001,2.787802734375,0.4901960784313726,-352.8711484593838,-12.815126050420169
6.945,IMU0,0.36404296875000003,5.795947265625,2.4333398437500002,3.781512605042017,-352.52100840336135,-12.675070028011206
6.955,IMU0,0.316142578125,5.872587890625001,2.481240234375,1.1204481792717087,-351.6106442577031,-12.114845938375352
6.965,IMU0,-0.20118164062500002,5.8630078125,2.5674609375000004,2.5910364145658265,-352.10084033613447,-11.764705882352942
6.975,IMU0,0.37362304687500003,5.815107421875,2.6632617187500003,-0.42016806722689076,-351.40056022408965,-11.064425770308123
6.985,IMU0,0.354462890625,5.748046875,3.017724609375,0.9803921568627452,-351.47058823529414,-10.92436974789916
6.995,IMU0,0.10538085937500001,5.84384765625,2.711162109375,-1.5406162464985995,-350.91036414565826,-10.784313725490197
7.005,IMU0,0.12454101562500001,5.786367187500001,3.0560449218750003,1.1204481792717087,-351.47058823529414,-10.434173669467787
7.015,IMU0,-0.21076171875000002,5.7384667968750005,2.711162109375,1.9607843137254903,-352.03081232492997,-9.73389355742297
7.025,IMU0,0.335302734375,5.805527343750001,2.5674609375000004,-0.1400560224089636,-352.8011204481793,-9.38375350140056
7.035,IMU0,-0.028740234375000003,5.72888671875,2.9794042968750003,-0.4901960784313726,-351.40056022408965,-8.473389355742297
7.045,IMU0,0.49816406250000006,5.748046875,2.9123437500000002,0.9803921568627452,-352.3109243697479,-8.403361344537815
7.055,IMU0,0.19160156250000002,5.7384667968750005,3.075205078125,2.5910364145658265,-351.40056022408965,-8.263305322128852
7.065,IMU0,0.17244140625,5.72888671875,3.017724609375,-0.2801120448179272,-351.33053221288515,-8.123249299719888
7.075,IMU0,0.18202148437500001,5.757626953125,2.9027636718750003,-1.6106442577030813,-352.10084033613447,-7.913165266106443
7.085,IMU0,0.21076171875000002,5.700146484375001,3.1326855468750003,1.400560224089636,-352.66106442577035,-7.492997198879552
7.095,IMU0,0.277822265625,5.69056640625,2.9889843750000002,0.5602240896358543,-352.2408963585434,-7.282913165266106
7.105,IMU0,0.43110351562500004,5.7384667968750005,3.036884765625,0.2801120448179272,-352.8711484593838,-6.932773109243698
7.115,IMU0,0.680185546875,5.633085937500001,3.113525390625,4.761904761904762,-352.2408963585434,-7.142857142857143
7.125,IMU0,0.6418652343750001,5.680986328125,2.596201171875,5.46218487394958,-351.1904761904762,-7.282913165266106
7.135,IMU0,0.737666015625,5.67140625,3.00814453125,6.302521008403362,-350.5602240896359,-7.563025210084034
7.145,IMU0,0.49816406250000006,5.6522460937500005,2.557880859375,4.551820728291316,-349.78991596638656,-7.703081232492997
7.155,IMU0,0.6418652343750001,5.7384667968750005,3.266806640625,1.9607843137254903,-348.80952380952385,-7.633053221288516
7.165,IMU0,0.7472460937500001,5.661826171875,2.5866210937500003,3.781512605042017,-347.8991596638656,-7.703081232492997
7.175,IMU0,0.6418652343750001,5.748046875,3.4584082031250003,4.411764705882353,-347.8291316526611,-7.983193277310924
7.185,IMU0,0.43110351562500004,5.6522460937500005,2.4908203125000004,4.341736694677872,-347.61904761904765,-8.263305322128852
7.195,IMU0,0.5843847656250001,5.623505859375,2.8069628906250004,4.411764705882353,-345.5882352941177,-8.333333333333334
7.205,IMU0,0.6227050781250001,5.5564453125,2.442919921875,4.271708683473389,-344.6078431372549,-8.403361344537815
7.215,IMU0,0.699345703125,5.546865234375001,2.529140625,3.2212885154061626,-342.3669467787115,-8.683473389355743
7.225,IMU0,0.929267578125,5.6522460937500005,2.47166015625,4.481792717086835,-341.6666666666667,-9.103641456582633
7.235,IMU0,0.42152343750000004,5.642666015625,2.8836035156250004,4.621848739495799,-339.84593837535016,-9.243697478991598
7.245,IMU0,0.6610253906250001,5.508544921875,2.596201171875,3.2913165266106446,-339.84593837535016,-9.593837535014005
7.255,IMU0,0.6227050781250001,5.527705078125001,2.615361328125,3.991596638655462,-339.3557422969188,-10.014005602240896
7.265,IMU0,0.45984375000000005,5.546865234375001,2.31837890625,4.131652661064426,-337.60504201680675,-10.014005602240896
7.275,IMU0,0.63228515625,5.4989648437500005,2.4141796875000003,5.392156862745098,-338.58543417366946,-10.224089635854343
7.285,IMU0,0.5748046875,5.4989648437500005,2.529140625,4.69187675070028,-336.624649859944,-10.154061624649861
7.295,IMU0,0.6418652343750001,5.594765625,2.2704785156250002,7.282913165266106,-336.624649859944,-10.434173669467787
7.305,IMU0,0.55564453125,5.546865234375001,2.31837890625,3.011204481792717,-334.94397759103646,-10.364145658263306
7.315,IMU0,0.6227050781250001,5.479804687500001,2.3279589843750004,2.9411764705882355,-334.3137254901961,-10.644257703081234
7.325,IMU0,0.48858398437500006,5.5564453125,2.1842578125000003,2.6610644257703084,-334.73389355742296,-10.854341736694678
7.335,IMU0,0.5748046875,5.489384765625,2.442919921875,1.6106442577030813,-335.29411764705884,-11.134453781512606
7.345,IMU0,0.5652246093750001,5.518125,2.54830078125,1.1904761904761905,-334.10364145658264,-10.994397759103641
7.355,IMU0,0.076640625,5.393583984375001,2.289638671875,3.151260504201681,-335.22408963585434,-11.064425770308123
7.365,IMU0,0.3065625,5.42232421875,2.39501953125,3.011204481792717,-334.94397759103646,-10.854341736694678
7.375,IMU0,0.24908203125000003,5.451064453125,2.2704785156250002,3.9215686274509807,-334.5238095238095,-10.57422969187675
7.385,IMU0,0.6227050781250001,5.4031640625,2.3279589843750004,2.030812324929972,-335.1540616246499,-10.57422969187675
7.395,IMU0,0.22034179687500002,5.479804687500001,2.3279589843750004,0.7703081232492998,-335.0840336134454,-10.504201680672269
7.405,IMU0,0.51732421875,5.441484375,2.289638671875,1.8907563025210086,-335.5742296918768,-10.714285714285715
7.415,IMU0,0.086220703125,5.566025390625001,2.7973828125,0.5602240896358543,-335.7843137254902,-10.57422969187675
7.425,IMU0,0.45984375000000005,5.393583984375001,2.5004003906250003,0,-336.6946778711485,-10.504201680672269
7.435,IMU0,0.067060546875,5.470224609375,2.998564453125,0.6302521008403361,-335.7843137254902,-10.294117647058824
7.445,IMU0,0.38320312500000003,5.316943359375,2.3375390625000003,2.030812324929972,-335.1540616246499,-10.154061624649861
7.455,IMU0,0.11496093750000001,5.441484375,2.481240234375,1.1904761904761905,-335.5742296918768,-9.803921568627452
7.465,IMU0,0.296982421875,5.326523437500001,2.3375390625000003,2.2408963585434174,-335.4341736694678,-9.873949579831933
7.475,IMU0,0.51732421875,5.4127441406250005,2.9027636718750003,2.5210084033613445,-334.5238095238095,-9.873949579831933
7.485,IMU0,0.335302734375,5.36484375,2.7399023437500003,0.8403361344537815,-335.0140056022409,-9.73389355742297
7.495,IMU0,0.32572265625,5.3456835937500005,2.8165429687500003,-0.0700280112044818,-334.10364145658264,-9.73389355742297
7.505,IMU0,0.45026367187500005,5.38400390625,2.835703125,2.100840336134454,-333.61344537815125,-9.73389355742297
7.515,IMU0,0.23950195312500003,5.38400390625,2.8261230468750003,0.4901960784313726,-333.12324929971993,-9.663865546218489
7.525,IMU0,0.335302734375,5.36484375,2.787802734375,2.2408963585434174,-332.703081232493,-9.523809523809524
7.535,IMU0,0.3448828125,5.316943359375,2.682421875,2.3109243697478994,-331.5826330532213,-9.313725490196079
7.545,IMU0,0.6514453125,5.326523437500001,2.7590625,2.030812324929972,-331.1624649859944,-9.243697478991598
7.555,IMU0,0.37362304687500003,5.326523437500001,2.8740234375,3.5014005602240896,-330.812324929972,-9.173669467787116
7.565,IMU0,0.689765625,5.374423828125001,2.692001953125,3.011204481792717,-329.90196078431376,-9.663865546218489
7.575,IMU0,0.39278320312500004,5.278623046875,3.1231054687500004,3.991596638655462,-330.18207282913164,-9.73389355742297
7.585,IMU0,0.18202148437500001,5.221142578125001,2.9698242187500004,2.8711484593837535,-328.71148459383755,-9.73389355742297
7.595,IMU0,0.7664062500000001,5.326523437500001,2.24173828125,5.2521008403361344,-326.40056022408965,-9.803921568627452
7.605,IMU0,0.39278320312500004,5.2115625,3.0656250000000003,3.5714285714285716,-325,-9.873949579831933
7.615,IMU0,0.6035449218750001,5.288203125000001,2.24173828125,5.46218487394958,-324.3697478991597,-10.434173669467787
7.625,IMU0,0.7855664062500001,5.240302734375001,2.5674609375000004,5.392156862745098,-324.08963585434174,-10.784313725490197
7.635,IMU0,0.258662109375,5.221142578125001,2.3471191406250003,4.201680672268908,-322.96918767507003,-10.784313725490197
7.645,IMU0,0.23950195312500003,5.154082031250001,2.9602441406250004,1.2605042016806722,-321.49859943977594,-10.714285714285715
7.655,IMU0,0.43110351562500004,5.19240234375,2.29921875,2.9411764705882355,-321.1484593837535,-10.434173669467787
7.665,IMU0,0.5460644531250001,5.2594628906250005,2.70158203125,6.162464985994398,-320.30812324929974,-10.57422969187675
7.675,IMU0,0.42152343750000004,5.240302734375001,2.4525,3.641456582633053,-319.5378151260504,-10.784313725490197
7.685,IMU0,0.44068359375000005,5.2498828125,2.212998046875,3.081232492997199,-318.69747899159665,-10.92436974789916
7.695,IMU0,0.3065625,5.221142578125001,2.35669921875,3.991596638655462,-318.8375350140056,-11.204481792717088
7.705,IMU0,0.23950195312500003,5.1732421875000005,2.2608984375000003,4.061624649859944,-317.57703081232495,-11.064425770308123
7.715,IMU0,0.28740234375,5.0966015625,2.634521484375,3.2212885154061626,-317.08683473389357,-10.994397759103641
7.725,IMU0,0.41194335937500004,5.221142578125001,2.5099804687500002,5.182072829131653,-317.2268907563025,-10.92436974789916
7.735,IMU0,0.19160156250000002,5.144501953125,2.5099804687500002,2.100840336134454,-316.38655462184875,-10.714285714285715
7.745,IMU0,0.41194335937500004,5.067861328125001,2.35669921875,2.801120448179272,-316.6666666666667,-10.994397759103641
7.755,IMU0,0.009580078125,5.154082031250001,2.442919921875,3.011204481792717,-315.8263305322129,-10.644257703081234
7.765,IMU0,0.39278320312500004,5.125341796875,2.375859375,1.3305322128851542,-315.546218487395,-10.644257703081234
7.775,IMU0,0.24908203125000003,5.125341796875,2.1746777343750003,1.4705882352941178,-315.6162464985995,-10.644257703081234
7.785,IMU0,0.45026367187500005,5.0199609375000005,2.682421875,-0.350140056022409,-314.84593837535016,-10.784313725490197
7.795,IMU0,0.057480468750000006,5.0966015625,2.35669921875,1.7507002801120448,-314.7058823529412,-10.784313725490197
7.805,IMU0,0.48858398437500006,5.087021484375001,2.557880859375,1.8207282913165266,-314.5658263305322,-10.644257703081234
7.815,IMU0,-0.19160156250000002,5.03912109375,2.5674609375000004,1.1904761904761905,-313.79551820728295,-10.364145658263306
7.825,IMU0,0.277822265625,5.067861328125001,2.519560546875,1.2605042016806722,-314.5658263305322,-10.294117647058824
7.835,IMU0,-0.11496093750000001,5.029541015625,1.9926562500000002,2.030812324929972,-314.91596638655466,-10.014005602240896
7.845,IMU0,0.32572265625,4.972060546875,2.4333398437500002,2.5910364145658265,-314.2857142857143,-9.803921568627452
7.855,IMU0,0.0383203125,4.991220703125,2.1459375,3.081232492997199,-314.5658263305322,-9.73389355742297
7.865,IMU0,0.11496093750000001,5.11576171875,2.787802734375,0.700280112044818,-315.0560224089636,-9.663865546218489
7.875,IMU0,0.01916015625,4.972060546875,2.1746777343750003,2.3109243697478994,-313.8655462184874,-9.593837535014005
7.885,IMU0,0.2682421875,5.07744140625,2.529140625,4.411764705882353,-314.07563025210084,-9.593837535014005
7.895,IMU0,-0.22992187500000003,5.067861328125001,2.4237597656250003,2.9411764705882355,-314.84593837535016,-9.313725490196079
7.905,IMU0,0.01916015625,4.92416015625,2.4525,1.8907563025210086,-314.0056022408964,-9.033613445378151
7.915,IMU0,-0.11496093750000001,4.991220703125,2.2608984375000003,3.5714285714285716,-313.9355742296919,-8.823529411764707
7.925,IMU0,0.22992187500000003,4.9433203125,2.47166015625,2.170868347338936,-314.4957983193277,-8.61344537815126
7.935,IMU0,-0.12454101562500001,4.981640625000001,2.4333398437500002,2.8711484593837535,-313.9355742296919,-8.473389355742297
7.945,IMU0,0.41194335937500004,4.981640625000001,2.20341796875,1.8907563025210086,-313.2352941176471,-8.473389355742297
7.955,IMU0,-0.17244140625,4.952900390625,2.60578125,1.8207282913165266,-313.515406162465,-8.19327731092437
7.965,IMU0,0.22992187500000003,4.914580078125001,2.692001953125,3.361344537815126,-314.07563025210084,-7.983193277310924
7.975,IMU0,-0.23950195312500003,4.9433203125,2.308798828125,3.431372549019608,-312.95518207282913,-7.492997198879552
7.985,IMU0,0.6035449218750001,4.8666796875000005,2.39501953125,3.361344537815126,-313.02521008403363,-7.492997198879552
7.995,IMU0,-0.076640625,4.92416015625,1.944755859375,3.151260504201681,-312.7450980392157,-7.633053221288516
8.005,IMU0,0.32572265625,4.876259765625,2.442919921875,6.0924369747899165,-311.06442577030816,-7.773109243697479
8.015,IMU0,0.23950195312500003,4.9337402343750005,2.08845703125,3.9215686274509807,-311.6946778711485,-7.703081232492997
8.025,IMU0,0.24908203125000003,4.952900390625,2.54830078125,4.271708683473389,-311.1344537815126,-7.983193277310924
8.035,IMU0,0.22034179687500002,4.9337402343750005,2.24173828125,4.901960784313726,-311.06442577030816,-7.843137254901961
8.045,IMU0,0.45984375000000005,4.837939453125,2.212998046875,4.621848739495799,-309.73389355742296,-7.843137254901961
8.055,IMU0,0.11496093750000001,4.8666796875000005,2.366279296875,3.081232492997199,-311.06442577030816,-7.983193277310924
8.065,IMU0,0.42152343750000004,4.828359375000001,1.8010546875000002,2.450980392156863,-310.7142857142857,-8.19327731092437
8.075,IMU0,-0.143701171875,4.88583984375,2.29921875,3.151260504201681,-310.85434173669466,-8.19327731092437
8.085,IMU0,0.5460644531250001,4.847519531250001,1.906435546875,5.182072829131653,-309.9439775910364,-8.473389355742297
8.095,IMU0,0.10538085937500001,4.75171875,2.222578125,4.061624649859944,-310.5042016806723,-8.333333333333334
8.105,IMU0,0.20118164062500002,4.8666796875000005,1.85853515625,4.411764705882353,-310.92436974789916,-8.473389355742297
8.115,IMU0,0.01916015625,4.857099609375,2.1459375,4.061624649859944,-311.7647058823529,-8.403361344537815
8.125,IMU0,0.067060546875,4.857099609375,2.040556640625,2.73109243697479,-312.46498599439775,-8.333333333333334
8.135,IMU0,0.22034179687500002,4.7900390625,1.85853515625,3.011204481792717,-311.6946778711485,-8.473389355742297
8.145,IMU0,-0.09580078125000001,4.847519531250001,1.9351757812500001,4.901960784313726,-311.5546218487395,-8.543417366946779
8.155,IMU0,-0.0383203125,4.828359375000001,2.059716796875,3.361344537815126,-312.2549019607843,-8.543417366946779
8.165,IMU0,-0.18202148437500001,4.761298828125001,2.08845703125,1.6106442577030813,-313.515406162465,-8.403361344537815
8.175,IMU0,-0.076640625,4.742138671875001,2.2513183593750004,1.8207282913165266,-312.53501400560225,-8.053221288515406
8.185,IMU0,0.12454101562500001,4.761298828125001,2.040556640625,0.9803921568627452,-312.53501400560225,-7.983193277310924
8.195,IMU0,-0.17244140625,4.722978515625,2.2704785156250002,2.450980392156863,-313.09523809523813,-7.843137254901961
8.205,IMU0,0.067060546875,4.75171875,2.308798828125,1.680672268907563,-311.8347338935574,-7.703081232492997
8.215,IMU0,-0.20118164062500002,4.7900390625,2.375859375,2.6610644257703084,-312.8151260504202,-7.42296918767507
8.225,IMU0,-0.20118164062500002,4.722978515625,2.54830078125,2.8711484593837535,-312.04481792717087,-7.142857142857143
8.235,IMU0,-0.0383203125,4.73255859375,2.29921875,2.5210084033613445,-311.5546218487395,-6.862745098039216
8.245,IMU0,0.09580078125000001,4.7133984375,2.24173828125,2.100840336134454,-311.2044817927171,-6.722689075630252
8.255,IMU0,-0.0383203125,4.6367578125,2.557880859375,0.4901960784313726,-309.4537815126051,-6.582633053221289
8.265,IMU0,0.15328125,4.722978515625,2.404599609375,3.361344537815126,-308.1932773109244,-6.582633053221289
8.275,IMU0,-0.01916015625,4.7133984375,2.921923828125,4.901960784313726,-308.4733893557423,-6.512605042016807
8.285,IMU0,0.28740234375,4.703818359375,2.404599609375,4.411764705882353,-307.2829131652661,-6.722689075630252
8.295,IMU0,0.09580078125000001,4.6367578125,2.711162109375,2.6610644257703084,-305.812324929972,-6.582633053221289
8.305,IMU0,0.258662109375,4.588857421875001,2.289638671875,4.971988795518207,-307.14285714285717,-6.862745098039216
8.315,IMU0,-0.0383203125,4.6367578125,2.7207421875,2.030812324929972,-304.90196078431376,-6.512605042016807
8.325,IMU0,0.44068359375000005,4.655917968750001,2.289638671875,5.112044817927171,-303.921568627451,-6.582633053221289
8.335,IMU0,0.45026367187500005,4.73255859375,2.375859375,5.322128851540617,-302.59103641456585,-6.862745098039216
8.345,IMU0,0.45026367187500005,4.608017578125001,2.7590625,6.23249299719888,-302.3809523809524,-7.212885154061625
8.355,IMU0,0.296982421875,4.6367578125,2.3471191406250003,6.652661064425771,-301.40056022408965,-7.633053221288516
8.365,IMU0,0.5460644531250001,4.6271777343750005,2.5866210937500003,5.322128851540617,-299.15966386554624,-7.703081232492997
8.375,IMU0,-0.01916015625,4.57927734375,2.2608984375000003,5.322128851540617,-298.1792717086835,-7.703081232492997
8.385,IMU0,0.44068359375000005,4.665498046875,2.442919921875,5.6722689075630255,-296.2885154061625,-7.773109243697479
8.395,IMU0,0.3065625,4.57927734375,2.2608984375000003,5.392156862745098,-295.5882352941177,-7.983193277310924
8.405,IMU0,0.6227050781250001,4.646337890625,2.20341796875,6.23249299719888,-294.11764705882354,-8.473389355742297
8.415,IMU0,0.36404296875000003,4.502636718750001,2.117197265625,5.182072829131653,-293.9775910364146,-9.033613445378151
8.425,IMU0,0.40236328125000004,4.6271777343750005,2.35669921875,4.971988795518207,-291.45658263305324,-9.243697478991598
8.435,IMU0,0.277822265625,4.512216796875,1.9926562500000002,5.46218487394958,-291.7366946778712,-9.663865546218489
8.445,IMU0,0.15328125,4.5984375,2.29921875,7.282913165266106,-291.31652661064425,-9.873949579831933
8.455,IMU0,0.45026367187500005,4.61759765625,1.85853515625,4.271708683473389,-290.8263305322129,-10.014005602240896
8.465,IMU0,0.36404296875000003,4.5409570312500005,2.117197265625,5.9523809523809526,-289.21568627450984,-10.294117647058824
8.475,IMU0,0.46942382812500005,4.655917968750001,1.8872753906250002,6.022408963585434,-289.91596638655466,-10.714285714285715
8.485,IMU0,0.057480468750000006,4.5984375,2.08845703125,5.5322128851540615,-288.4453781512605,-10.994397759103641
8.495,IMU0,0.51732421875,4.435576171875001,1.8010546875000002,7.072829131652662,-288.4453781512605,-11.414565826330533
8.505,IMU0,-0.009580078125,4.531376953125,2.040556640625,2.170868347338936,-288.79551820728295,-11.344537815126051
8.515,IMU0,0.258662109375,4.57927734375,1.6956738281250001,2.6610644257703084,-288.79551820728295,-11.414565826330533
8.525,IMU0,0.0383203125,4.4547363281250005,2.05013671875,4.551820728291316,-288.375350140056,-11.414565826330533
8.535,IMU0,0,4.5409570312500005,1.9639160156250002,3.431372549019608,-288.58543417366946,-11.484593837535014
8.545,IMU0,-0.143701171875,4.550537109375,2.28005859375,4.551820728291316,-290.1260504201681,-11.27450980392157
8.555,IMU0,-0.0383203125,4.42599609375,1.62861328125,2.450980392156863,-290.4761904761905,-11.134453781512606
8.565,IMU0,0.047900390625000004,4.42599609375,1.9160156250000002,2.170868347338936,-290.0560224089636,-10.994397759103641
8.575,IMU0,-0.21076171875000002,4.46431640625,2.05013671875,1.8907563025210086,-290.8263305322129,-10.994397759103641
8.585,IMU0,-0.2682421875,4.435576171875001,2.069296875,3.2212885154061626,-292.8571428571429,-10.644257703081234
8.595,IMU0,-0.162861328125,4.435576171875001,2.1076171875000003,3.9215686274509807,-293.34733893557427,-10.364145658263306
8.605,IMU0,-0.32572265625,4.42599609375,2.20341796875,3.5714285714285716,-293.69747899159665,-10.224089635854343
8.615,IMU0,-0.36404296875000003,4.42599609375,2.39501953125,2.5910364145658265,-292.57703081232495,-9.73389355742297
8.625,IMU0,-0.10538085937500001,4.378095703125,1.944755859375,1.8207282913165266,-292.7170868347339,-9.453781512605042
8.635,IMU0,-0.3065625,4.4068359375,2.059716796875,2.030812324929972,-293.34733893557427,-9.103641456582633
8.645,IMU0,-0.13412109375,4.42599609375,2.222578125,0.4901960784313726,-293.34733893557427,-8.893557422969188
8.655,IMU0,-0.12454101562500001,4.3876757812500005,2.31837890625,0.700280112044818,-292.3669467787115,-8.403361344537815
8.665,IMU0,-0.086220703125,4.4068359375,2.366279296875,-0.21008403361344538,-291.6666666666667,-8.053221288515406
8.675,IMU0,-0.11496093750000001,4.31103515625,2.4908203125000004,1.050420168067227,-290.96638655462186,-7.913165266106443
8.685,IMU0,0.076640625,4.3301953125,2.3471191406250003,1.3305322128851542,-290.89635854341736,-7.983193277310924
8.695,IMU0,-0.258662109375,4.4068359375,2.538720703125,2.030812324929972,-290.33613445378154,-7.773109243697479
8.705,IMU0,-0.009580078125,4.3301953125,2.24173828125,1.6106442577030813,-289.5658263305322,-7.843137254901961
8.715,IMU0,-0.18202148437500001,4.3014550781250005,2.538720703125,2.100840336134454,-289.14565826330534,-7.492997198879552
8.725,IMU0,0.067060546875,4.339775390625,2.404599609375,1.2605042016806722,-289.77591036414566,-7.352941176470589
8.735,IMU0,-0.11496093750000001,4.3014550781250005,2.634521484375,1.8207282913165266,-288.30532212885157,-7.142857142857143
8.745,IMU0,0.45026367187500005,4.397255859375,2.2513183593750004,2.170868347338936,-288.30532212885157,-7.282913165266106
8.755,IMU0,-0.13412109375,4.320615234375,2.6728417968750002,3.011204481792717,-287.3949579831933,-7.492997198879552
8.765,IMU0,0.49816406250000006,4.263134765625001,2.117197265625,1.9607843137254903,-288.30532212885157,-7.773109243697479
8.775,IMU0,-0.2682421875,4.263134765625001,2.85486328125,3.8515406162464987,-286.2745098039216,-7.703081232492997
8.785,IMU0,0.47900390625000006,4.282294921875001,2.28005859375,4.411764705882353,-285.5042016806723,-7.703081232492997
8.795,IMU0,0,4.31103515625,2.538720703125,5.322128851540617,-285.1540616246499,-7.773109243697479
8.805,IMU0,0.5269042968750001,4.3301953125,2.289638671875,5.9523809523809526,-284.5238095238095,-7.983193277310924
8.815,IMU0,0.2682421875,4.27271484375,2.1842578125000003,5.2521008403361344,-283.2633053221289,-8.19327731092437
8.825,IMU0,0.23950195312500003,4.2152343750000005,2.4333398437500002,4.761904761904762,-282.7731092436975,-8.403361344537815
8.835,IMU0,0.3065625,4.27271484375,2.212998046875,5.392156862745098,-281.9327731092437,-8.61344537815126
8.845,IMU0,0.40236328125000004,4.2152343750000005,2.47166015625,6.0924369747899165,-281.37254901960785,-8.96358543417367
8.855,IMU0,0.23950195312500003,4.320615234375,2.28005859375,5.602240896358544,-280.0420168067227,-9.173669467787116
8.865,IMU0,0.6418652343750001,4.205654296875,2.069296875,5.042016806722689,-278.4313725490196,-9.453781512605042
8.875,IMU0,0.028740234375000003,4.2152343750000005,2.2608984375000003,4.971988795518207,-277.8711484593838,-9.663865546218489
8.885,IMU0,0.41194335937500004,4.2152343750000005,2.1459375,5.2521008403361344,-276.40056022408965,-9.943977591036415
8.895,IMU0,0.3065625,4.205654296875,2.002236328125,3.361344537815126,-276.05042016806726,-10.154061624649861
8.905,IMU0,0.335302734375,4.2152343750000005,1.7723144531250001,3.011204481792717,-274.5798319327731,-10.504201680672269
8.915,IMU0,0.067060546875,4.243974609375,2.1938378906250002,3.991596638655462,-274.85994397759106,-10.994397759103641
8.925,IMU0,0.296982421875,4.23439453125,1.676513671875,4.971988795518207,-274.3697478991597,-11.27450980392157
8.935,IMU0,0.009580078125,4.167333984375,2.136357421875,6.162464985994398,-273.9495798319328,-11.134453781512606
8.945,IMU0,0.19160156250000002,4.1481738281250005,1.59029296875,4.201680672268908,-274.0196078431373,-11.344537815126051
8.955,IMU0,0.028740234375000003,4.23439453125,2.069296875,3.5014005602240896,-274.6498599439776,-11.204481792717088
8.965,IMU0,0.3065625,4.15775390625,1.657353515625,3.151260504201681,-275.7002801120448,-11.414565826330533
8.975,IMU0,0.009580078125,4.1769140625,1.9639160156250002,3.081232492997199,-275.5602240896359,-11.484593837535014
8.985,IMU0,-0.13412109375,4.1481738281250005,1.8776953125000002,3.011204481792717,-276.1204481792717,-11.554621848739496
8.995,IMU0,-0.076640625,4.1481738281250005,1.7244140625000002,3.9215686274509807,-276.9607843137255,-11.414565826330533
9.005,IMU0,-0.10538085937500001,4.1481738281250005,1.8393750000000002,0.42016806722689076,-276.8207282913165,-11.204481792717088
9.015,IMU0,-0.01916015625,4.1481738281250005,1.906435546875,2.170868347338936,-277.59103641456585,-11.134453781512606
9.025,IMU0,-0.15328125,4.042792968750001,1.82021484375,1.7507002801120448,-277.94117647058823,-11.064425770308123
9.035,IMU0,-0.10538085937500001,4.1002734375,2.002236328125,1.4705882352941178,-278.1512605042017,-10.854341736694678
9.045,IMU0,-0.11496093750000001,4.071533203125,1.7627343750000002,-0.21008403361344538,-278.2212885154062,-10.784313725490197
9.055,IMU0,-0.258662109375,4.1481738281250005,1.9639160156250002,0.350140056022409,-279.6218487394958,-10.644257703081234
9.065,IMU0,-0.32572265625,4.071533203125,1.9639160156250002,-0.21008403361344538,-279.6218487394958,-10.434173669467787
9.075,IMU0,-0.24908203125000003,4.042792968750001,2.2608984375000003,1.6106442577030813,-280.0420168067227,-10.014005602240896
9.085,IMU0,-0.22034179687500002,4.109853515625001,1.78189453125,0.6302521008403361,-280.32212885154064,-9.663865546218489
9.095,IMU0,-0.28740234375,4.090693359375,2.308798828125,-0.9103641456582633,-280.6022408963586,-9.313725490196079
9.105,IMU0,-0.44068359375000005,4.042792968750001,1.868115234375,-0.2801120448179272,-281.0924369747899,-8.96358543417367
9.115,IMU0,-0.17244140625,4.052373046875,2.117197265625,0.8403361344537815,-280.25210084033614,-8.543417366946779
9.125,IMU0,-0.17244140625,4.042792968750001,1.9351757812500001,-0.700280112044818,-279.9719887955182,-8.333333333333334
9.135,IMU0,-0.39278320312500004,4.0619531250000005,2.366279296875,-0.700280112044818,-280.7422969187675,-8.263305322128852
9.145,IMU0,-0.296982421875,4.052373046875,2.2513183593750004,0.5602240896358543,-280.95238095238096,-8.123249299719888
9.155,IMU0,-0.009580078125,4.014052734375,2.212998046875,0.8403361344537815,-280.32212885154064,-7.913165266106443
9.165,IMU0,-0.44068359375000005,4.014052734375,2.2513183593750004,2.100840336134454,-279.6918767507003,-7.563025210084034
9.175,IMU0,-0.076640625,3.956572265625,2.1459375,1.8907563025210086,-279.4817927170869,-7.282913165266106
9.185,IMU0,-0.335302734375,4.014052734375,2.3279589843750004,2.6610644257703084,-279.3417366946779,-7.002801120448179
9.195,IMU0,0.067060546875,4.014052734375,2.0213964843750003,1.4705882352941178,-278.2913165266107,-6.792717086834735
9.205,IMU0,-0.162861328125,4.0236328125,2.4333398437500002,0.7703081232492998,-277.7310924369748,-6.582633053221289
9.215,IMU0,0.0383203125,4.0236328125,2.212998046875,2.5210084033613445,-277.7310924369748,-6.652661064425771
9.225,IMU0,-0.086220703125,4.033212890625,2.289638671875,2.380952380952381,-277.52100840336135,-6.652661064425771
9.235,IMU0,-0.15328125,3.956572265625,2.08845703125,2.9411764705882355,-276.9607843137255,-6.652661064425771
9.245,IMU0,-0.10538085937500001,3.9853125000000005,2.2513183593750004,2.5910364145658265,-276.1204481792717,-6.512605042016807
9.255,IMU0,-0.01916015625,3.956572265625,2.117197265625,2.5910364145658265,-275.140056022409,-6.512605042016807
9.265,IMU0,0.09580078125000001,3.96615234375,2.1746777343750003,4.341736694677872,-274.92997198879556,-6.582633053221289
9.275,IMU0,0.01916015625,4.00447265625,1.944755859375,4.481792717086835,-274.5098039215686,-6.652661064425771
9.285,IMU0,-0.11496093750000001,3.9086718750000005,2.5674609375000004,4.061624649859944,-274.0196078431373,-6.582633053221289
9.295,IMU0,0.09580078125000001,3.96615234375,2.0309765625000002,4.201680672268908,-272.6890756302521,-6.442577030812325
9.305,IMU0,0.18202148437500001,3.9853125000000005,1.944755859375,3.151260504201681,-272.47899159663865,-6.652661064425771
9.315,IMU0,-0.10538085937500001,4.042792968750001,2.529140625,3.5714285714285716,-272.2689075630252,-6.652661064425771
9.325,IMU0,0.15328125,4.1002734375,1.6477734375000002,3.5714285714285716,-272.4089635854342,-7.072829131652662
9.335,IMU0,-0.17244140625,4.042792968750001,2.0213964843750003,5.2521008403361344,-271.42857142857144,-7.282913165266106
9.345,IMU0,0.3448828125,4.0236328125,1.657353515625,3.151260504201681,-269.5378151260504,-7.42296918767507
9.355,IMU0,-0.047900390625000004,4.014052734375,1.9255957031250002,3.2913165266106446,-269.74789915966386,-7.563025210084034
9.365,IMU0,0.24908203125000003,4.033212890625,2.078876953125,4.271708683473389,-268.62745098039215,-7.983193277310924
9.375,IMU0,-0.23950195312500003,3.96615234375,1.85853515625,3.9215686274509807,-268.76750700280115,-8.19327731092437
9.385,IMU0,0.047900390625000004,4.033212890625,2.078876953125,4.341736694677872,-269.04761904761904,-8.473389355742297
9.395,IMU0,-0.143701171875,3.975732421875,1.74357421875,3.5714285714285716,-268.9775910364146,-8.473389355742297
